# Created by:        SpecsLab Prodigy, Version 4.50.2-r79252 
#
# XY-Serializer Export Settings:
#   Comment Prefix:           #
#   Output meta data:         yes
#   Energy Axis:              Binding Energy
#   Count Rate:               Counts per Second
#   Separate Scan Data:       no
#   Separate Channel Data:    no
#   External Channel Data:    yes
#   Transmission Function:    no
#   ErrorBar:                 no
#   Operation Results:        yes
#   Time Zone Format:         UTC
#
# Group:             Spectrum Group
#
# Region:            Spectrum
# Acquisition Date:  11/07/19 16:01:20 UTC
# Analysis Method:   XPS
# Analyzer:          Phoibos
# Analyzer Lens:     MediumArea:1.5kV
# Analyzer Slit:     4:3x20\B:open
# Scan Mode:         FixedAnalyzerTransmission
# Curves/Scan:       1
# Values/Curve:      1301
# Dwell Time:        0.1
# Excitation Energy: 1486.71
# Binding Energy:    1300
# Pass Energy:       50
# Bias Voltage:      90
# Detector Voltage:  1900
# Eff. Workfunction: 4.395
# Source:            Focus
# Comment:           
#
# Cycle: 0
# Number of Scans: 2
#
# Cycle: 0, Curve: 0
# Acquisition Date: 11/07/19 16:01:20 UTC
#
# ColumnLabels: energy counts/s
#
1300  16230.813
1299  16100.74
1298  16607.548
1297  16455.755
1296  16344.363
1295  16303.519
1294  16030.159
1293  16643.863
1292  16652.822
1291  16218.891
1290  16625.857
1289  16822.459
1288  16908.868
1287  16801.044
1286  16499.017
1285  16895.324
1284  16586.355
1283  16606.413
1282  16721.26
1281  16718.439
1280  17130.441
1279  16379.147
1278  16558.283
1277  16353.73
1276  16527.583
1275  16877.381
1274  16811.765
1273  16361.757
1272  17189.725
1271  16794.549
1270  17275.138
1269  17249.575
1268  17000.879
1267  16495.399
1266  16918.27
1265  16986.729
1264  17157.016
1263  16882.859
1262  17137.146
1261  17416.62
1260  17233.577
1259  17120.692
1258  17349.06
1257  17155.297
1256  17409.766
1255  17496.25
1254  17374.83
1253  17168.946
1252  17354.435
1251  17843.697
1250  17405.381
1249  17788.356
1248  18278.381
1247  17979.622
1246  18043.05
1245  17895.215
1244  17942.246
1243  17919.27
1242  18451.783
1241  18427.91
1240  18607.153
1239  18069.993
1238  18391.363
1237  17696.78
1236  18483.45
1235  18162.571
1234  17985.409
1233  17980.674
1232  18633.513
1231  19759.961
1230  19838.388
1229  20110.372
1228  19432.997
1227  19319.433
1226  19659.006
1225  18975.835
1224  18021.724
1223  18393.936
1222  17920.179
1221  17348.051
1220  17514.026
1219  16799.136
1218  16833.122
1217  16458.797
1216  16422.944
1215  15924.28
1214  15232.863
1213  14997.887
1212  15118.995
1211  15664.122
1210  15272.026
1209  14845.231
1208  15201.631
1207  15012.646
1206  15204.745
1205  15193.268
1204  15153.515
1203  15262.949
1202  15227.886
1201  15420.427
1200  15616.752
1199  16035.287
1198  15293.401
1197  15526.389
1196  15899.797
1195  15441.633
1194  15070.746
1193  15356.586
1192  15134.035
1191  15228.549
1190  15570.331
1189  15091.762
1188  15088.866
1187  15049.393
1186  14936.121
1185  15287.567
1184  15215.145
1183  14932.635
1182  15222.616
1181  14939.551
1180  14902.723
1179  15664.509
1178  15376.348
1177  15688.76
1176  15346.956
1175  15139.203
1174  15444.094
1173  15841.057
1172  15997.375
1171  15616.153
1170  15459.447
1169  15013.422
1168  15479.764
1167  14959.079
1166  15348.071
1165  16047.24
1164  15686.208
1163  15917.707
1162  15931.63
1161  15679.385
1160  15574.137
1159  15679.641
1158  15183.496
1157  15182.948
1156  15797.326
1155  15357.206
1154  15311.115
1153  15776.529
1152  15695.924
1151  15547.653
1150  15770.474
1149  15436.323
1148  15873.714
1147  15740.94
1146  16150.535
1145  16277.724
1144  15394.214
1143  16109.254
1142  16191.564
1141  15642.452
1140  15903.294
1139  15735.613
1138  15700.262
1137  16334.172
1136  16057.651
1135  15453.247
1134  15741.469
1133  15940.924
1132  15925.186
1131  15551.58
1130  15687.463
1129  16095.858
1128  15974.095
1127  15610.314
1126  15582.157
1125  15509.209
1124  15867.321
1123  15897.31
1122  15876.249
1121  15966.892
1120  15565.717
1119  16347.765
1118  16395.899
1117  16120.889
1116  15827.882
1115  16358.475
1114  16402.06
1113  15498.619
1112  15911.615
1111  15839.589
1110  16243.101
1109  15843.99
1108  15926.86
1107  15635.221
1106  15281.354
1105  15570.397
1104  16161.102
1103  15531.1
1102  15482.504
1101  16023.941
1100  16303.895
1099  15864.47
1098  16198.246
1097  15948.735
1096  15982.391
1095  16316.957
1094  16017.465
1093  15944.245
1092  16345.947
1091  16352.959
1090  15962.32
1089  15980.755
1088  16200.882
1087  16141.81
1086  15866.611
1085  16023.816
1084  16070.108
1083  16414.245
1082  16041.297
1081  15741.527
1080  16232.33
1079  15980.002
1078  16136.751
1077  16401.531
1076  16226.179
1075  15979.535
1074  16776.677
1073  17053.976
1072  17321.449
1071  16082.002
1070  15705.14
1069  16408.33
1068  16243.311
1067  15784.974
1066  16416.969
1065  16545.655
1064  16585.8
1063  16541.505
1062  16140.733
1061  16232.991
1060  16321.569
1059  16214.118
1058  16334.011
1057  16252.059
1056  16441.212
1055  16328.634
1054  16104.765
1053  15962.135
1052  15978.343
1051  16144.525
1050  16340.55
1049  16554.719
1048  16422.358
1047  16530.87
1046  16533.87
1045  16943.241
1044  16427.849
1043  16222.262
1042  16367.404
1041  16085.499
1040  16410.032
1039  16355.797
1038  16642.164
1037  16726.765
1036  16819.445
1035  16587.276
1034  16488.018
1033  16398.032
1032  16486.388
1031  16329.432
1030  16796.034
1029  16011.147
1028  16278.634
1027  16237.481
1026  16453.995
1025  16621.883
1024  16476.38
1023  16952.617
1022  16511.945
1021  16355.847
1020  16679.692
1019  16777.467
1018  16371.751
1017  16594.37
1016  16681.858
1015  16495.076
1014  16451.355
1013  16063.88
1012  15415.314
1011  15814.483
1010  15573.806
1009  16069.592
1008  16025.149
1007  16028.223
1006  16097.053
1005  16826.741
1004  17077.816
1003  17195.704
1002  17035.652
1001  16644.51
1000  16249.766
999  16241.922
998  16160.452
997  15717.218
996  15322.619
995  15133.53
994  14648.879
993  14196.62
992  13525.203
991  13559.293
990  13430.675
989  13504.149
988  13359.918
987  13272.466
986  13530.198
985  14298.922
984  15770.116
983  16368.736
982  17269.129
981  18116.86
980  18700.72
979  17027.763
978  15536.783
977  14337.755
976  13347.364
975  12635.358
974  12163.668
973  11832.756
972  11441.579
971  11629.602
970  10495.074
969  10097.351
968  9748.9715
967  9596.0277
966  9263.107
965  9178.5437
964  9660.5902
963  9509.0183
962  9301.3818
961  9468.7733
960  9671.3019
959  9776.5949
958  9597.5324
957  9222.789
956  9448.2026
955  9546.2647
954  9697.6507
953  9185.992
952  9011.1399
951  9322.8673
950  9339.6792
949  9516.341
948  9398.3591
947  9590.5188
946  9573.6338
945  9926.9842
944  9675.611
943  9653.1285
942  9761.4701
941  9812.0966
940  9737.1713
939  9960.3764
938  10001.114
937  10273.02
936  9707.072
935  9661.795
934  9483.3591
933  9844.6711
932  9898.0407
931  9938.7932
930  9584.106
929  9782.7599
928  10129.178
927  10170.646
926  9961.9474
925  9841.7315
924  10278.549
923  10204.773
922  10057.531
921  10330.366
920  10268.223
919  10114.971
918  10303.574
917  10067.556
916  9987.9207
915  10486.041
914  10572.713
913  10053.635
912  9732.5099
911  10180.558
910  10194.891
909  10302.955
908  10211.948
907  10382.851
906  10314.617
905  10504.929
904  10185.691
903  10471.384
902  10299.656
901  10170.518
900  10284.685
899  10729.412
898  10335.649
897  10867.197
896  10289.777
895  10559.471
894  10272.239
893  10800.773
892  11041.021
891  10615.042
890  10671.511
889  10940.398
888  10875.486
887  11115.506
886  11144.078
885  11039.512
884  10989.957
883  11027.808
882  10967.498
881  10951.035
880  10720.759
879  11161.502
878  10455.524
877  10931.358
876  11147.321
875  11115.333
874  11126.63
873  10929.274
872  11449.414
871  11220.798
870  11153.983
869  11326.071
868  11236.38
867  11211.7
866  11228.375
865  11555.325
864  11483.409
863  11399.902
862  11685.026
861  11355.132
860  10966.987
859  11343.887
858  11447.846
857  11673.648
856  11597.028
855  11222.168
854  11245.21
853  11869.842
852  11689.334
851  11387.637
850  11787.262
849  11526.033
848  11531.105
847  11739.148
846  11786.908
845  11613.243
844  12315.749
843  12156.524
842  11597.895
841  11751.352
840  11777.468
839  11907.353
838  11956.07
837  12164.981
836  11886.586
835  12119.849
834  12026.095
833  11714.831
832  11629.291
831  12285.82
830  12133.241
829  12255.689
828  12333.694
827  12232.089
826  12246.754
825  12537.563
824  12470.506
823  12518.083
822  12506.107
821  12272.568
820  12458.073
819  12777.711
818  12692.67
817  12430.336
816  12553.913
815  12517.847
814  12761.918
813  12666.403
812  12777.961
811  12309.017
810  12782.877
809  12790.104
808  12544.012
807  12667.678
806  12676.245
805  12838.737
804  12862.418
803  12938.876
802  12750.758
801  12451.238
800  12593.471
799  12889.239
798  12708.128
797  12303.323
796  12557.447
795  12823.127
794  12420.493
793  12893.083
792  13142.965
791  13318.478
790  13037.367
789  13032.721
788  12840.812
787  13104.61
786  13071.518
785  13481.482
784  13732.514
783  13676.822
782  13137.862
781  12889.454
780  13070.012
779  13168.496
778  13297.151
777  13234.773
776  13631.406
775  13014.373
774  13285.657
773  13515.769
772  13098.797
771  13126.29
770  13437.884
769  13421.723
768  13664.2
767  13427.882
766  13347.804
765  13355.326
764  13401.345
763  14030.556
762  13953.738
761  13882.068
760  13833.754
759  13642.432
758  13777.808
757  13834.993
756  14043.239
755  13964.134
754  13772.708
753  13561.417
752  13924.312
751  14033.333
750  14166.598
749  14630.512
748  13956.347
747  13843.933
746  14132.986
745  14522.253
744  14135.534
743  13875.917
742  13916.534
741  14095.692
740  13920.895
739  14136.459
738  14304.792
737  14143.381
736  13799.296
735  13807.285
734  14576.354
733  14570.164
732  14095.282
731  14442.275
730  14442.168
729  14754.219
728  14325.879
727  14360.819
726  14436.7
725  14735.558
724  14494.465
723  14693.143
722  14782.591
721  14784.421
720  14406.703
719  13871.655
718  14289.837
717  14501.852
716  14443.294
715  14506.879
714  14665.782
713  14392.915
712  14596.965
711  15029.726
710  14682.266
709  14923.542
708  15025.495
707  14986.287
706  15232.551
705  15294.664
704  15100.573
703  15042.115
702  14807.753
701  15294.541
700  14715.601
699  15149.529
698  15591.146
697  14990.136
696  15113.607
695  15015.939
694  14636.918
693  15191.742
692  14988.115
691  15168.412
690  15275.498
689  15334.407
688  15121.137
687  15362.613
686  15526.2
685  15576.125
684  15698.434
683  15441.29
682  15587.337
681  15698.195
680  15802.277
679  15700.335
678  15702.545
677  15199.491
676  15475.959
675  15609.266
674  15869.455
673  15541.31
672  15912.917
671  16075.266
670  15913.498
669  16077.102
668  16079.217
667  15725.244
666  15670.833
665  15743.751
664  16029.608
663  15858.962
662  15947.45
661  16058.702
660  15967.372
659  16316.41
658  16187.07
657  16019.583
656  16229.889
655  16438.401
654  16675.116
653  16460.408
652  16198.766
651  16278.659
650  16273.684
649  16245.491
648  16729.415
647  16600.419
646  16752.504
645  16876.45
644  16388.994
643  16216.337
642  16294.021
641  16750.981
640  16081.679
639  16450.558
638  16587.417
637  16850.43
636  16509.872
635  16510.859
634  16783.819
633  16176.974
632  16400.925
631  16807.261
630  16714.106
629  16837.552
628  16701.334
627  16247.302
626  16678.858
625  16910.587
624  16786.694
623  17209.252
622  16933.132
621  17423.808
620  16866.784
619  16859.387
618  16674.044
617  17111.487
616  16746.924
615  17031.128
614  17125.804
613  17068.28
612  16647.7
611  17136.779
610  16919.131
609  17054.941
608  17309.586
607  16924.732
606  16638.481
605  16737.912
604  17184.332
603  17086.021
602  17711.871
601  17410.066
600  17185.808
599  16816.225
598  17063.762
597  17288.252
596  17232.661
595  17334.354
594  16891.708
593  16830.325
592  17175.395
591  16648.871
590  16746.437
589  17146.991
588  17454.143
587  17240.325
586  17703.618
585  17098.019
584  17259.037
583  17090.903
582  17580.663
581  17797.706
580  17381.857
579  17411.584
578  17242.448
577  17602.126
576  17703.925
575  16921.44
574  16720.614
573  17081.703
572  16758.49
571  16037.416
570  16317.298
569  16443.467
568  16160.436
567  15529.943
566  15501.652
565  15832.375
564  16155.182
563  16431.284
562  16877.319
561  17598.708
560  17749.396
559  17970.385
558  18392.48
557  19372.623
556  19465.398
555  19634.681
554  18586.983
553  18114.673
552  16748.911
551  16265.318
550  15357.978
549  14881.095
548  14188.424
547  13296.474
546  12078.759
545  11171.567
544  10008.286
543  8251.6232
542  7627.1468
541  6602.2017
540  6444.7068
539  6473.3355
538  6645.2012
537  7138.6786
536  9001.2246
535  21846.724
534  75554.948
533  83639.294
532  27546.746
531  9782.0193
530  6884.8641
529  6189.4441
528  6028.6983
527  5849.5089
526  5768.3657
525  5927.4508
524  5807.9226
523  5842.055
522  5894.0646
521  5590.735
520  5705.5735
519  5434.5921
518  5582.1033
517  5694.2703
516  5550.758
515  5858.0549
514  5501.8782
513  5571.7483
512  5485.9099
511  5753.373
510  5614.2576
509  5659.646
508  5753.1454
507  5837.4204
506  5806.2501
505  5789.83
504  5644.1848
503  5916.8203
502  5701.9701
501  5567.1116
500  5998.0399
499  6208.0274
498  6597.2728
497  6268.9247
496  6017.7464
495  5771.49
494  5609.2231
493  5538.3452
492  5325.5888
491  5633.4911
490  5536.4108
489  5685.7533
488  5655.2483
487  5933.3871
486  5785.8165
485  5756.4575
484  5642.7218
483  5565.03
482  5455.6757
481  6004.4304
480  5733.3535
479  5805.7669
478  5913.5297
477  5807.8733
476  5723.593
475  5913.501
474  5833.9598
473  5602.1553
472  5587.7455
471  5646.9608
470  5781.3009
469  5501.6126
468  5727.6522
467  5836.2201
466  5545.3681
465  5646.1798
464  5751.744
463  5844.8605
462  5874.5751
461  5553.174
460  5810.062
459  5951.2171
458  5982.1065
457  5830.7312
456  5596.3607
455  5598.1081
454  5547.9259
453  5757.8351
452  5774.8011
451  5625.3303
450  5802.0517
449  5818.9083
448  5869.3495
447  5916.9394
446  5955.0731
445  5842.3041
444  5712.7394
443  5718.1355
442  5951.0755
441  5834.1589
440  6089.0249
439  6004.5686
438  6083.7472
437  5549.1448
436  5629.8593
435  5825.1644
434  5987.9995
433  5649.8481
432  5443.1531
431  5690.7212
430  5982.4382
429  5923.5112
428  5745.309
427  5952.5931
426  5801.2373
425  5736.1371
424  5836.1977
423  5541.195
422  5539.1742
421  5800.9952
420  6043.0399
419  6020.3767
418  5850.3665
417  6012.1846
416  5929.1464
415  5881.5061
414  5757.0442
413  5991.0444
412  5784.478
411  5921.9331
410  5885.2297
409  5744.1724
408  5768.6169
407  5914.8348
406  6068.5516
405  6112.4205
404  6010.3436
403  5967.7094
402  6056.6509
401  6470.9973
400  6275.015
399  6028.8739
398  5935.4186
397  6110.6951
396  5862.0757
395  5977.8156
394  6060.4209
393  6005.844
392  6143.9882
391  5919.8675
390  5890.4818
389  5838.7219
388  5686.597
387  5827.1436
386  5863.2601
385  5975.9396
384  6136.4446
383  6262.5717
382  6011.3824
381  6015.555
380  6023.386
379  6256.6277
378  6001.9855
377  6294.4981
376  6293.0576
375  6305.7214
374  5921.2944
373  6138.6684
372  6256.4655
371  6042.3249
370  6215.1878
369  6257.2383
368  6503.6775
367  6159.9041
366  6096.5336
365  6352.2401
364  6236.8569
363  6243.115
362  6130.0972
361  6060.296
360  6204.8734
359  5944.1257
358  5964.0379
357  6340.411
356  6221.7636
355  6211.6052
354  6408.5328
353  6589.5381
352  6445.476
351  6367.4797
350  6451.2087
349  6822.8053
348  6999.0303
347  6644.7239
346  6356.5149
345  6319.2613
344  6356.4372
343  6514.9655
342  6339.3795
341  6266.8694
340  6319.7889
339  6273.4135
338  6205.5964
337  6363.1464
336  6312.6074
335  6222.5132
334  6346.9855
333  6482.3293
332  6459.1877
331  6570.254
330  6535.6533
329  6661.4026
328  6731.4428
327  6580.162
326  6731.1611
325  6805.9923
324  6883.1306
323  6745.6172
322  6400.4911
321  6816.9552
320  7179.3996
319  6905.5139
318  7109.7361
317  7088.9168
316  6859.2974
315  7213.7129
314  7069.7148
313  7158.2291
312  7160.4798
311  7208.4209
310  7390.1724
309  7330.5539
308  7501.4426
307  7286.8601
306  7092.3616
305  7466.1774
304  7277.7296
303  6911.7108
302  6820.2735
301  6914.2334
300  6782.9886
299  6770.6137
298  6715.2968
297  6578.2873
296  6459.9248
295  6369.6611
294  6247.5562
293  6112.0963
292  5744.0187
291  5901.8297
290  6315.365
289  6951.3083
288  7408.8272
287  10653.694
286  23097.51
285  27430.765
284  10083.903
283  5960.8166
282  5713.4338
281  5860.9463
280  5779.3421
279  5860.0735
278  5600.5847
277  5672.7783
276  5809.6099
275  5898.2746
274  5690.2283
273  5402.1475
272  5379.0833
271  5732.1876
270  5945.6495
269  5952.1361
268  5879.1871
267  5691.6819
266  5669.4906
265  5666.3617
264  5839.8821
263  5738.1607
262  5469.6272
261  5843.2022
260  5703.5488
259  5609.0022
258  5797.7724
257  5554.2748
256  5781.4514
255  5684.2375
254  5588.4029
253  5174.075
252  5567.4628
251  5500.1127
250  5429.7432
249  5910.6377
248  5827.3113
247  5743.5354
246  5511.2427
245  5419.7912
244  5535.6916
243  5656.1859
242  5380.6269
241  5685.5322
240  5852.108
239  5598.9587
238  5926.8542
237  5748.9386
236  5255.786
235  5480.2888
234  5486.474
233  5723.5648
232  6016.2026
231  5827.9315
230  5608.7604
229  5754.6796
228  6067.3253
227  6023.6784
226  5679.3229
225  5801.904
224  5746.2541
223  5514.1219
222  5746.0504
221  5948.7908
220  5532.0057
219  5554.8884
218  5557.3483
217  5503.5875
216  5697.2631
215  5604.997
214  5592.4378
213  5757.2412
212  5801.8702
211  5698.0586
210  5809.5965
209  5778.7685
208  5735.9081
207  5737.812
206  5735.2456
205  5690.7462
204  5718.8186
203  5969.3719
202  5740.1685
201  5909.7321
200  5945.4405
199  5899.4324
198  5911.895
197  6114.347
196  6184.5453
195  5841.5688
194  5539.117
193  5753.7633
192  5875.426
191  5746.6325
190  5711.6282
189  5733.1269
188  5592.3073
187  5634.9306
186  5714.5084
185  5888.9005
184  5728.5947
183  5864.6418
182  6036.1581
181  6471.0141
180  6381.2021
179  6723.5409
178  6717.7761
177  6486.3562
176  6389.8685
175  6341.1111
174  6327.1809
173  6418.6788
172  6155.3348
171  5933.6666
170  5747.6896
169  5446.1618
168  5191.2221
167  4840.1453
166  4197.3736
165  4494.8358
164  3917.6847
163  3791.6884
162  3703.0829
161  3839.9782
160  4038.1557
159  4336.2298
158  5233.3449
157  8031.7785
156  15097.14
155  19464.438
154  14925.036
153  8750.9683
152  5560.0646
151  4430.2975
150  3953.9633
149  3855.5019
148  3699.8952
147  3660.0516
146  3776.6831
145  3655.8584
144  3394.3175
143  3395.0433
142  3392.3537
141  3233.6188
140  3349.9787
139  3440.1208
138  3245.245
137  3309.8452
136  3223.1496
135  3167.8894
134  3192.3956
133  3316.5701
132  3422.9658
131  3572.3113
130  3763.8186
129  3988.0437
128  4144.1063
127  4121.9103
126  3998.1661
125  3975.4209
124  3859.8182
123  3857.4183
122  3707.9299
121  3309.2667
120  3247.6538
119  3159.9011
118  2962.7652
117  2433.5093
116  2185.4582
115  1851.4298
114  1711.6822
113  1281.0629
112  1155.5359
111  1128.1305
110  1229.7888
109  1157.5919
108  1239.2473
107  1432.6767
106  3560.0673
105  14164.461
104  21867.781
103  11526.444
102  4633.48
101  1456.5735
100  1158.612
99  1193.3158
98  1036.5531
97  890.62427
96  1033.4135
95  1004.3569
94  949.97992
93  1053.406
92  1031.6265
91  980.044
90  996.67579
89  1044.7922
88  1080.8802
87  1043.706
86  992.97521
85  1114.3638
84  993.93481
83  944.62948
82  1007.7738
81  1053.3562
80  1094.4428
79  1083.2963
78  1111.3506
77  1161.5223
76  1145.5719
75  1031.232
74  1160.1938
73  1159.1993
72  1092.2868
71  1074.537
70  1089.2196
69  1048.7413
68  1066.4303
67  1072.382
66  1046.0565
65  1065.8459
64  1299.1582
63  1026.1591
62  970.63411
61  1000.2028
60  992.4558
59  1122.7879
58  1141.4087
57  1150.2516
56  1223.763
55  1134.0984
54  1061.309
53  1238.616
52  1289.4906
51  1313.8516
50  1185.6991
49  1290.5749
48  1239.2793
47  1171.6277
46  1052.0236
45  1057.7439
44  1072.5728
43  1027.2586
42  882.5636
41  963.975
40  954.53056
39  833.96929
38  797.4748
37  760.73868
36  749.98139
35  806.24009
34  827.93373
33  899.94324
32  928.00679
31  996.65878
30  1082.0427
29  1400.8226
28  2093.1619
27  3138.0876
26  3565.5478
25  2604.4392
24  1161.6426
23  590.1657
22  385.22102
21  325.10915
20  347.08561
19  399.4229
18  549.23307
17  641.11442
16  846.36459
15  890.88656
14  934.21814
13  771.44583
12  721.10751
11  567.20835
10  811.1567
9  843.7669
8  766.97926
7  725.70949
6  322.45928
5  118.10268
4  39.728149
3  6.99801
2  19.321875
1  8.161615
0  3.4579