# Region:            Survey (6)
# Acquisition Date:  11/08/19 23:34:17 UTC
# Analysis Method:   XPS
# Analyzer:          Phoibos
# Analyzer Lens:     MediumArea:1.5kV
# Analyzer Slit:     4:3x20\B:open
# Scan Mode:         FixedAnalyzerTransmission
# Curves/Scan:       1
# Values/Curve:      1301
# Dwell Time:        0.1
# Excitation Energy: 1486.71
# Binding Energy:    1300
# Pass Energy:       50
# Bias Voltage:      90
# Detector Voltage:  1900
# Eff. Workfunction: 4.395
# Source:            Focus
# Comment:           Despues de decapado 20 min
#
# Cycle: 0
# Number of Scans: 2
#
# Cycle: 0, Curve: 0
# Acquisition Date: 11/08/19 23:34:17 UTC
#
# ColumnLabels: energy counts/s
#
1300  10145.71
1299  10544.506
1298  10382.218
1297  10258.36
1296  10602.056
1295  10286.569
1294  9941.5039
1293  10131.522
1292  10029.022
1291  10028.944
1290  10101.074
1289  10123.031
1288  9883.5007
1287  10013.226
1286  10226.838
1285  9885.7434
1284  9383.1919
1283  9904.3308
1282  9738.172
1281  9315.991
1280  9385.9778
1279  9537.021
1278  9872.0816
1277  9892.8995
1276  9697.4606
1275  9807.1707
1274  9843.0171
1273  9605.7237
1272  9811.2292
1271  9801.893
1270  9740.6361
1269  9839.9759
1268  9668.8702
1267  9498.9914
1266  9718.0434
1265  9277.7346
1264  9203.4363
1263  9591.2815
1262  9582.4735
1261  9480.2574
1260  9572.1902
1259  9888.9751
1258  9828.2698
1257  9744.5192
1256  9365.7349
1255  9344.3398
1254  9351.1103
1253  9501.3365
1252  9427.268
1251  9425.4375
1250  9322.6009
1249  9680.3698
1248  9169.5657
1247  9094.2895
1246  9380.1533
1245  9230.362
1244  9470.2353
1243  9225.5019
1242  9240.8957
1241  9331.8128
1240  9117.7622
1239  8911.9754
1238  9286.0029
1237  9547.956
1236  9376.74
1235  9198.5949
1234  9317.5371
1233  9334.9058
1232  9638.8222
1231  9536.8221
1230  9507.5298
1229  9095.1957
1228  9023.2988
1227  9066.1291
1226  8868.6268
1225  9301.6131
1224  9413.7055
1223  9051.3163
1222  9020.8725
1221  9277.4842
1220  9126.7572
1219  9296.1428
1218  9126.4199
1217  9177.0676
1216  9378.8911
1215  9092.9509
1214  9196.1648
1213  8889.8552
1212  9158.1929
1211  9142.117
1210  9350.3395
1209  9065.0297
1208  9429.4307
1207  9383.1128
1206  9134.4643
1205  9029.8752
1204  9089.6999
1203  9326.868
1202  9057.721
1201  9193.2469
1200  9040.5667
1199  8735.8118
1198  9134.195
1197  9183.3512
1196  9475.1923
1195  9524.4156
1194  9198.1629
1193  8905.5246
1192  9134.676
1191  9096.8952
1190  9294.0543
1189  9413.6416
1188  9383.817
1187  9059.8106
1186  8650.8587
1185  9396.4231
1184  9088.8771
1183  8856.8432
1182  9100.5511
1181  9297.2237
1180  9085.5553
1179  9222.1997
1178  9308.5734
1177  9118.2328
1176  9227.0217
1175  9294.5217
1174  9133.8418
1173  9433.9796
1172  9394.3237
1171  9366.0477
1170  9236.7333
1169  8966.484
1168  9111.9389
1167  9276.3745
1166  9555.2462
1165  9434.9882
1164  9425.475
1163  9468.6155
1162  8975.9923
1161  9128.4646
1160  9302.8569
1159  9177.7956
1158  9569.8641
1157  9356.8537
1156  9130.1629
1155  9088.6321
1154  9302.2347
1153  9112.2232
1152  9511.4877
1151  9132.905
1150  9334.3987
1149  9121.594
1148  9347.6873
1147  9540.3084
1146  9408.3872
1145  9309.7888
1144  9052.2419
1143  9351.5455
1142  9055.8228
1141  9284.0081
1140  9138.8038
1139  9294.2889
1138  9159.0696
1137  9228.0196
1136  9157.4333
1135  9249.4275
1134  9464.2943
1133  9625.1775
1132  9683.8104
1131  9665.741
1130  9578.7325
1129  9440.3289
1128  9425.6777
1127  9580.5897
1126  9942.4649
1125  9800.0438
1124  9103.4893
1123  9253.3232
1122  9525.3501
1121  9532.4333
1120  9392.4847
1119  9506.131
1118  9607.5152
1117  9773.5259
1116  9520.6894
1115  9644.5112
1114  9728.0546
1113  9683.2418
1112  9706.2639
1111  9527.1238
1110  9411.4404
1109  9717.8411
1108  9437.002
1107  9783.2366
1106  9371.264
1105  9596.6861
1104  9731.3886
1103  9831.6974
1102  9803.5519
1101  9755.7896
1100  9961.5606
1099  9722.604
1098  9775.3294
1097  9750.7051
1096  9437.6045
1095  9429.8138
1094  9756.4099
1093  10085.636
1092  10118.109
1091  9746.9792
1090  9797.4516
1089  10091.893
1088  9772.4259
1087  9922.19
1086  10128.017
1085  9941.7796
1084  10090.74
1083  9412.095
1082  10082.972
1081  10113.843
1080  10043.687
1079  10015.369
1078  10301.556
1077  10258.429
1076  10095.418
1075  10201.09
1074  11208.193
1073  11565.959
1072  10691.078
1071  10275.628
1070  10027.854
1069  10208.001
1068  10288.784
1067  10637.622
1066  10367.649
1065  10598.662
1064  10828.717
1063  10351.906
1062  10746.471
1061  10719.655
1060  10696.222
1059  10830.447
1058  10796.819
1057  10537.541
1056  10626.123
1055  11114.974
1054  10896.37
1053  11001.452
1052  10639.101
1051  10604.107
1050  11192.032
1049  11115.79
1048  11079.654
1047  11353.64
1046  11343.505
1045  11311.765
1044  11488.71
1043  11324.882
1042  11270.118
1041  11378.952
1040  11701.481
1039  11501.791
1038  11523.5
1037  11856.972
1036  12190.395
1035  11788.063
1034  12075.852
1033  12026.597
1032  12009.326
1031  12266.809
1030  12635.028
1029  12124.12
1028  12033.807
1027  12188.144
1026  12039.997
1025  12476.107
1024  12675.384
1023  12974.054
1022  13188.023
1021  12899.833
1020  13086.178
1019  13087.265
1018  13640.629
1017  13695.552
1016  13496.871
1015  13769.894
1014  13854.45
1013  13225.761
1012  13466.715
1011  13223.853
1010  13420.487
1009  14107.722
1008  13949.967
1007  13990.094
1006  14457.606
1005  15276.359
1004  15696.306
1003  15989.221
1002  16323.077
1001  17004.539
1000  16650.188
999  16343.28
998  16089.56
997  14930.534
996  14997.793
995  14410.556
994  13869.18
993  13860.867
992  12963.797
991  12379.949
990  13040.047
989  13330.946
988  14213.995
987  13957.44
986  13776.296
985  14743.971
984  16982.334
983  18276.543
982  19787.358
981  21959.578
980  23628.385
979  23693.901
978  21209.079
977  18126.774
976  16301.389
975  13891.963
974  12093.009
973  11391.783
972  10281.465
971  9477.3902
970  8633.017
969  7806.192
968  7132.8521
967  6803.3762
966  6058.8736
965  6039.1056
964  5747.6608
963  5762.1974
962  5812.2593
961  5788.5522
960  5467.0078
959  5637.8513
958  5569.6198
957  5885.8713
956  5819.7548
955  5491.8053
954  5784.0453
953  5455.0029
952  5348.3846
951  5417.1053
950  5431.472
949  5600.562
948  5683.3337
947  5577.5625
946  5487.0614
945  5980.5935
944  5711.635
943  5713.5413
942  5866.6739
941  5650.3441
940  5964.5649
939  5713.4587
938  5817.2472
937  5711.1552
936  5780.1733
935  6014.18
934  5934.07
933  5719.4888
932  5778.8095
931  5654.1164
930  5901.1311
929  5960.4324
928  5842.7841
927  6062.681
926  6152.7155
925  5625.9604
924  5994.0691
923  6191.8677
922  5765.6601
921  5717.8443
920  5748.8791
919  6055.1816
918  6029.6008
917  5950.4982
916  6061.2381
915  6066.0013
914  5790.4013
913  6016.0652
912  5919.9502
911  5761.4442
910  6369.5442
909  6132.4334
908  6155.3699
907  6014.2799
906  5903.7075
905  5947.6372
904  6191.3883
903  5990.557
902  5945.9094
901  6022.2649
900  6104.5215
899  6193.8952
898  6225.865
897  5976.0572
896  6103.2226
895  6049.2878
894  6128.074
893  6046.0039
892  5939.1002
891  6243.1013
890  6308.3688
889  6588.6079
888  6297.4325
887  6195.6978
886  6199.8955
885  6184.4086
884  6357.9245
883  6073.8283
882  6193.8341
881  6161.5763
880  6020.9752
879  6112.158
878  6217.4752
877  6573.0507
876  6533.4908
875  6818.7025
874  6385.2692
873  6420.9711
872  6342.3023
871  6312.2982
870  6390.005
869  6367.8981
868  6288.3071
867  6491.8003
866  6554.0419
865  6570.772
864  6612.2417
863  6583.7761
862  6608.7174
861  6402.6344
860  6743.2773
859  6728.2754
858  6743.8651
857  6798.4363
856  6465.2819
855  6345.4233
854  6534.714
853  6608.228
852  6792.1438
851  6768.014
850  6526.5116
849  6554.8886
848  6755.4341
847  6772.3367
846  6763.7932
845  6724.5486
844  6647.1023
843  6890.5956
842  7155.9941
841  6896.693
840  6862.2395
839  7058.6035
838  6675.7758
837  6847.4316
836  6832.3068
835  6587.3928
834  7236.4401
833  6671.995
832  6686.384
831  6913.2635
830  7122.6355
829  7054.2629
828  6984.3907
827  6778.9736
826  7237.3163
825  6952.6637
824  7208.4371
823  7119.9523
822  6985.8061
821  7073.6114
820  6899.077
819  7046.283
818  7249.2628
817  7074.0273
816  7017.0879
815  7263.5057
814  7216.8425
813  6905.8429
812  6993.9992
811  7185.8536
810  7368.5761
809  6964.6787
808  7122.9146
807  7284.3314
806  7134.1532
805  6865.9887
804  7081.6089
803  7459.2392
802  7391.2846
801  7246.7383
800  7097.2399
799  7176.1766
798  7366.266
797  7139.5486
796  7381.5784
795  6891.4967
794  6867.4333
793  7396.5708
792  7441.284
791  7418.8529
790  7502.1954
789  7540.5547
788  7573.3787
787  7546.0678
786  7699.7286
785  7688.1374
784  7541.1534
783  7318.1883
782  7695.7203
781  7560.7078
780  7794.716
779  7910.0649
778  7933.8263
777  7864.4466
776  7302.1856
775  7615.3471
774  7626.8488
773  7953.4926
772  8104.4379
771  7750.5154
770  7665.8621
769  7765.8963
768  7405.2484
767  7759.8795
766  7860.0612
765  7692.8836
764  7697.7482
763  7683.8252
762  7817.6421
761  7756.2622
760  7916.7383
759  8021.7734
758  8074.9407
757  8101.7888
756  7824.7132
755  7760.5197
754  7835.7231
753  7942.3242
752  7787.9072
751  7606.1923
750  7935.9582
749  8024.6541
748  8270.3739
747  7791.6693
746  7884.458
745  8051.1968
744  7718.1017
743  7874.8331
742  7812.5548
741  8186.0954
740  8161.6056
739  7804.7031
738  7974.6025
737  8196.7885
736  8359.408
735  8460.8456
734  8538.0318
733  8289.6509
732  8237.9181
731  7944.4515
730  8319.2729
729  8367.9876
728  8332.9822
727  8435.9952
726  8592.7069
725  8458.7988
724  8566.3304
723  8381.7322
722  8329.3297
721  8510.7474
720  8463.9712
719  8484.4799
718  8623.2634
717  8533.7295
716  8534.2857
715  8739.8019
714  8479.2092
713  8668.7294
712  8812.616
711  8574.4791
710  8662.3268
709  8921.4876
708  8901.8609
707  9053.7195
706  9002.4296
705  8826.7548
704  8852.3055
703  8942.7386
702  8818.4831
701  8610.6073
700  9116.9053
699  9004.1983
698  8929.3696
697  9182.5381
696  8966.6089
695  9112.7371
694  9161.0406
693  9287.496
692  8995.4336
691  9031.8932
690  9114.7907
689  9074.2438
688  9112.0683
687  8917.9675
686  9580.0549
685  9298.1441
684  9082.0455
683  9689.1908
682  9116.0153
681  9123.6091
680  9469.8646
679  9673.9211
678  9827.3377
677  9896.5913
676  9610.5709
675  9327.0486
674  9545.2001
673  9292.0309
672  9592.6704
671  9696.0949
670  9706.4907
669  10008.732
668  9783.4675
667  9677.7073
666  10063.336
665  9754.3831
664  10056.447
663  9981.8307
662  9893.9999
661  9914.8713
660  9898.7694
659  9942.4623
658  9972.6031
657  9919.9049
656  9598.4914
655  10263.43
654  10034.547
653  10031.916
652  10097.726
651  10295.483
650  10320.144
649  10355.486
648  10198.912
647  10124.663
646  10480.904
645  10700.173
644  10517.28
643  10594.264
642  10778.248
641  11097.999
640  10805.659
639  10995.043
638  10646.38
637  10825.756
636  10946.505
635  10999.96
634  10673.77
633  11029.649
632  11040.234
631  10866.896
630  10955.89
629  11197.931
628  10876.352
627  11171.21
626  11474.303
625  11887.001
624  11888.09
623  11266.432
622  11214.648
621  11692.336
620  11723.638
619  11312.334
618  11824.255
617  11765.774
616  11564.516
615  11808.633
614  11906.276
613  11661.485
612  11734.761
611  11677.948
610  12236.082
609  11774.064
608  11657.919
607  12330.061
606  12665.132
605  12313.536
604  12373.681
603  12562.283
602  12531.851
601  12202.851
600  12342.297
599  12570.659
598  12612.104
597  12875.263
596  12898.118
595  13046.202
594  13170.614
593  13218.838
592  13021.414
591  13573.575
590  13617.925
589  13993.26
588  14044.327
587  13411.559
586  13644.779
585  13586.278
584  13667.175
583  14549.716
582  14100.41
581  14481.182
580  14358.129
579  14429.298
578  14170.262
577  14208.546
576  13898.958
575  13901.491
574  14306.858
573  14443.361
572  14645.224
571  14495.525
570  14187.15
569  14314.665
568  14399.225
567  14021.309
566  14116.796
565  14336.967
564  14848.584
563  15286.386
562  15318.899
561  16212.47
560  16335.763
559  16845.68
558  16714.225
557  17377.778
556  17463.112
555  17664.643
554  17707.628
553  17068.62
552  16572.53
551  15796.437
550  14955.24
549  14521.504
548  13950.605
547  13674.71
546  13491.993
545  12885.297
544  12180.343
543  11804.125
542  11250.426
541  10895.966
540  10878.199
539  11074.225
538  10816.183
537  10845.132
536  12132.614
535  18769.59
534  53719.41
533  104377.59
532  71126.31
531  22322.973
530  9774.6862
529  8378.5787
528  8275.241
527  8103.4951
526  7907.3844
525  7650.6931
524  7903.1695
523  7956.3762
522  7781.6304
521  7666.5822
520  7905.6831
519  7713.2137
518  7744.9862
517  7711.1287
516  7692.1803
515  7702.5043
514  7734.2454
513  7747.8511
512  7637.0151
511  7835.8433
510  7953.6708
509  7794.2819
508  7486.4398
507  7710.2867
506  7658.9273
505  7949.882
504  7982.692
503  8049.3856
502  8484.1014
501  8468.853
500  8363.9895
499  8401.2678
498  8225.2291
497  7961.3865
496  7964.5994
495  8047.5289
494  7601.2221
493  7952.9077
492  7937.0762
491  7800.3609
490  7896.7803
489  7680.7227
488  7588.3195
487  7867.2007
486  7727.5644
485  7877.4976
484  7931.034
483  7621.3894
482  7784.3266
481  7858.6576
480  7701.0255
479  7819.1314
478  7883.0796
477  7865.9102
476  7754.9864
475  7858.2415
474  7642.9533
473  7903.5082
472  8014.3755
471  7988.8369
470  8063.4522
469  8105.392
468  7894.8331
467  7771.7127
466  8103.5321
465  7938.1045
464  7783.1809
463  7965.4931
462  8056.1064
461  7949.6336
460  7913.4025
459  8078.7094
458  8006.082
457  8133.2852
456  7996.4965
455  8353.5212
454  7838.5146
453  8046.5955
452  8406.0951
451  8156.244
450  7981.9281
449  8053.3435
448  7958.5031
447  8359.4974
446  8299.1524
445  8340.4675
444  8173.1137
443  8030.8108
442  7990.1549
441  8163.7221
440  8105.8787
439  8039.0439
438  8201.3508
437  8680.6199
436  8274.7304
435  8291.5393
434  8441.6618
433  8158.5977
432  8350.1095
431  8192.8606
430  8299.2461
429  8590.2301
428  8601.7881
427  8258.5342
426  8573.9256
425  8499.581
424  8136.7725
423  8245.5896
422  8294.8482
421  8525.4507
420  8356.3957
419  8210.5986
418  8469.841
417  8623.4616
416  8908.614
415  8493.2225
414  8011.5852
413  8402.6102
412  8520.4924
411  8053.0708
410  8205.3695
409  8577.9388
408  8551.5214
407  8647.1916
406  8738.7054
405  8546.3021
404  8217.2993
403  8602.585
402  8593.062
401  8753.2777
400  8704.2568
399  9177.1574
398  9394.2148
397  8971.69
396  8569.7356
395  8886.9704
394  8726.5759
393  8775.7116
392  8618.7349
391  8659.2854
390  8933.0179
389  8771.4479
388  8594.721
387  8319.9456
386  8746.7915
385  8670.4927
384  8562.7727
383  8758.1356
382  8985.4098
381  8701.3108
380  8836.4853
379  8558.5186
378  8437.7846
377  8252.4697
376  8520.1994
375  8815.3229
374  8786.8569
373  8739.6012
372  8792.3892
371  8866.7798
370  8905.9468
369  9075.2944
368  9015.2823
367  8887.0996
366  8746.2071
365  8516.3598
364  8595.2421
363  9035.6577
362  9134.123
361  9075.9727
360  8958.2212
359  9115.6647
358  8832.5918
357  9036.9162
356  8918.2854
355  8708.831
354  9153.0263
353  9436.1751
352  9154.2161
351  9126.782
350  8973.509
349  9001.0403
348  9023.1582
347  9206.2241
346  9152.143
345  9057.7511
344  9354.9044
343  8869.9712
342  8700.0831
341  8835.9976
340  8910.5229
339  8862.7647
338  9059.8379
337  9110.6329
336  9459.1048
335  9531.6451
334  9356.9388
333  9087.1756
332  9066.4381
331  8853.417
330  8931.1802
329  9053.0763
328  8750.9901
327  8959.0016
326  9233.8478
325  9389.5782
324  9413.2266
323  9135.3888
322  9266.8882
321  9526.8414
320  10100.1
319  9358.2709
318  9378.5947
317  9376.6915
316  9335.6975
315  9038.0283
314  9186.3389
313  9305.6754
312  9486.7825
311  9178.6727
310  9103.3417
309  9322.159
308  8981.3647
307  9251.8612
306  9493.1022
305  9267.4162
304  9436.4716
303  9360.7316
302  9165.7687
301  9601.9527
300  9223.0091
299  9268.2573
298  9045.7511
297  9115.5087
296  9151.8111
295  9552.1731
294  9818.5207
293  9479.5984
292  9425.2615
291  9588.8099
290  9280.0179
289  9330.0611
288  9617.9397
287  9603.8697
286  9866.3916
285  9608.0905
284  9815.308
283  9930.1138
282  9672.3625
281  9640.3225
280  9693.6746
279  9874.5987
278  9765.3134
277  9949.014
276  9398.9551
275  9661.7168
274  9536.1738
273  9667.9959
272  9824.849
271  9868.4101
270  9520.8364
269  9732.4058
268  9965.1176
267  9798.0734
266  10034.573
265  10289.889
264  10190.227
263  9741.7196
262  10416.173
261  9998.817
260  10086.511
259  9944.3704
258  9866.0811
257  9867.9737
256  9810.0181
255  9826.5525
254  9952.6464
253  9892.0344
252  9656.1035
251  9719.6993
250  9681.141
249  9859.9276
248  9993.7163
247  9746.7641
246  10105.142
245  10596.912
244  10888.46
243  11130.468
242  12166.149
241  10520.156
240  9893.556
239  10039.192
238  9720.8795
237  9917.3896
236  9942.0735
235  9993.9825
234  10148.116
233  10581.073
232  10661.391
231  10524.293
230  10262.737
229  10303.696
228  10743.153
227  10573.188
226  10090.214
225  10097.822
224  10342.571
223  10078.433
222  10233.962
221  9918.2252
220  10010.388
219  9935.2337
218  9927.7594
217  9765.3113
216  10197.06
215  10415.22
214  10127.25
213  10157.217
212  10122.788
211  10118.385
210  10211.647
209  9926.3743
208  10200.552
207  10277.018
206  10443.041
205  10423.366
204  10309.728
203  10350.17
202  10329.827
201  10445.941
200  9939.2039
199  10154.59
198  10203.783
197  10377.903
196  10348.462
195  10089.28
194  10468.038
193  10550.133
192  10668.798
191  10294.034
190  10312.146
189  10391.716
188  10775.538
187  10500.733
186  10732.372
185  10575.586
184  10115.718
183  10486.032
182  10321
181  10348.389
180  10765.328
179  10342.117
178  10529.917
177  10681.11
176  10656.889
175  10742.965
174  11114.766
173  10650.2
172  10848.537
171  10849.637
170  10918.316
169  11037.898
168  10949.02
167  10228.619
166  9728.2916
165  9170.8097
164  9255.6352
163  8469.5555
162  8240.2253
161  8152.949
160  8735.2111
159  8521.638
158  8641.3286
157  10236.49
156  14611.978
155  21652.608
154  23249.706
153  19328.654
152  16516.129
151  17900.956
150  13530.118
149  8114.0214
148  6573.1172
147  6319.5319
146  5769.2955
145  5659.9426
144  5603.7036
143  5704.7011
142  5643.2102
141  5711.1363
140  5495.841
139  5289.1061
138  5373.7299
137  5575.454
136  5524.3728
135  5528.3765
134  5754.2248
133  5595.8194
132  5451.6209
131  5468.2064
130  4919.7016
129  5157.6946
128  5351.0988
127  5224.2524
126  5161.3628
125  5291.3283
124  5183.3962
123  5210.4414
122  5382.3973
121  5547.5893
120  5503.2324
119  5739.0897
118  5713.3657
117  5591.9033
116  5463.5843
115  4758.2779
114  4255.9099
113  3799.4368
112  3279.7042
111  3040.2026
110  2735.6753
109  2807.7502
108  2614.4686
107  2652.6398
106  3558.812
105  8319.1163
104  17071.375
103  18712.463
102  13220.87
101  9339.8533
100  12631.269
99  10383.641
98  2088.3598
97  881.45005
96  717.04789
95  693.69181
94  687.44932
93  661.05245
92  724.91874
91  660.56447
90  705.10022
89  731.25906
88  780.93638
87  815.81726
86  788.70141
85  691.26029
84  749.96011
83  830.96085
82  759.11292
81  791.82777
80  791.95635
79  806.56406
78  844.0714
77  758.56407
76  798.21497
75  828.54262
74  825.60231
73  719.40966
72  681.22596
71  747.84808
70  868.34912
69  847.59304
68  792.96126
67  820.06086
66  947.31527
65  1019.5369
64  937.29076
63  815.76508
62  906.84245
61  958.64878
60  884.33317
59  805.41812
58  882.87284
57  917.78545
56  952.68029
55  994.27737
54  892.83233
53  1007.2515
52  1075.5622
51  963.66519
50  1042.2365
49  1123.6754
48  1171.9393
47  1104.8572
46  1027.2117
45  883.33158
44  937.58226
43  855.50939
42  1043.6891
41  1124.3889
40  1039.6996
39  977.90046
38  956.73709
37  853.4885
36  957.78462
35  1001.1265
34  875.64062
33  1104.4926
32  1142.3189
31  979.69492
30  1093.5136
29  1390.5
28  1817.9986
27  2499.571
26  3084.3702
25  2882.4283
24  2132.1836
23  1375.0632
22  822.18308
21  616.51252
20  535.72834
19  506.79472
18  456.82823
17  394.51905
16  574.81278
15  815.48753
14  1001.1508
13  1047.4136
12  1166.5752
11  1159.1143
10  1185.5202
9  1159.164
8  1032.9916
7  816.36275
6  729.45014
5  611.34008
4  545.02931
3  438.90025
2  307.52088
1  157.56211
0  24.047024