# Region:            Survey (10)
# Acquisition Date:  11/11/19 20:10:08 UTC
# Analysis Method:   XPS
# Analyzer:          Phoibos
# Analyzer Lens:     MediumArea:1.5kV
# Analyzer Slit:     4:3x20\B:open
# Scan Mode:         FixedAnalyzerTransmission
# Curves/Scan:       1
# Values/Curve:      1301
# Dwell Time:        0.1
# Excitation Energy: 1486.71
# Binding Energy:    1300
# Pass Energy:       50
# Bias Voltage:      90
# Detector Voltage:  1900
# Eff. Workfunction: 4.395
# Source:            Focus
# Comment:           decapado 10 min
#
# Cycle: 0
# Number of Scans: 2
#
# Cycle: 0, Curve: 0
# Acquisition Date: 11/11/19 20:10:08 UTC
#
# ColumnLabels: energy counts/s
#
1300  6460.0998
1299  6507.2669
1298  6174.7269
1297  6345.5074
1296  6117.9348
1295  6252.93
1294  6002.9093
1293  6030.4137
1292  6194.245
1291  6017.564
1290  5508.6467
1289  5786.6055
1288  6255.0518
1287  6083.2648
1286  6136.8971
1285  5915.5591
1284  5597.0065
1283  5767.3796
1282  5524.2031
1281  5526.7383
1280  5769.2442
1279  5696.9834
1278  5655.3945
1277  5512.9715
1276  5470.0054
1275  5633.2222
1274  5918.6821
1273  6027.6967
1272  5986.1447
1271  5668.5726
1270  5654.1478
1269  5758.6991
1268  5593.612
1267  5716.9578
1266  5292.5416
1265  5207.7996
1264  5406.4212
1263  5287.5881
1262  5106.3784
1261  5041.729
1260  5016.813
1259  5069.3744
1258  5155.9951
1257  5252.9726
1256  5057.6928
1255  5032.4268
1254  4998.9845
1253  4774.3319
1252  4986.1493
1251  5145.0845
1250  4929.0598
1249  4998.4165
1248  4949.7528
1247  4670.9179
1246  4995.8528
1245  5160.1389
1244  5148.7678
1243  4883.4392
1242  4781.1059
1241  4962.1722
1240  4852.8945
1239  4781.6025
1238  5027.4765
1237  4882.7697
1236  5115.0637
1235  5034.5231
1234  5050.6092
1233  4880.4445
1232  4890.7859
1231  5026.9172
1230  5166.1807
1229  4989.2294
1228  5072.9803
1227  5003.7392
1226  4870.9358
1225  4917.8298
1224  5038.3026
1223  5025.9645
1222  5030.8769
1221  4878.0065
1220  4829.8785
1219  4759.3021
1218  4979.1386
1217  4992.8368
1216  4890.8912
1215  5054.2448
1214  4934.8587
1213  5069.011
1212  4914.3153
1211  4994.4823
1210  5085.5255
1209  4792.6641
1208  4922.7409
1207  4954.374
1206  4824.6028
1205  4861.2374
1204  4879.4289
1203  4677.2942
1202  4520.4849
1201  4598.4859
1200  4714.7522
1199  4818.9219
1198  4799.6602
1197  4641.8294
1196  4745.8668
1195  4531.0892
1194  5072.968
1193  4835.7435
1192  4841.952
1191  5093.5037
1190  4824.7392
1189  4663.0239
1188  4769.6954
1187  4765.9251
1186  4747.8816
1185  4802.4896
1184  4830.6361
1183  5019.1788
1182  4802.0177
1181  4632.1133
1180  4652.1041
1179  4677.0531
1178  4651.5645
1177  4944.6368
1176  4643.6868
1175  4804.3989
1174  4778.182
1173  4730.508
1172  4564.3617
1171  4750.5701
1170  4448.5077
1169  4791.3424
1168  4500.9086
1167  4676.9845
1166  4523.0305
1165  4533.7466
1164  4749.8032
1163  4828.9834
1162  4708.9022
1161  4724.2145
1160  4562.9467
1159  4398.1638
1158  4585.7224
1157  4517.4512
1156  4768.6821
1155  4602.7619
1154  4710.1765
1153  4887.3559
1152  4717.6499
1151  4569.0455
1150  4787.0888
1149  4699.3802
1148  4725.9018
1147  4885.77
1146  4683.489
1145  4650.633
1144  4651.5848
1143  4730.3783
1142  4789.9358
1141  4672.2341
1140  4552.5345
1139  4607.4049
1138  4546.6106
1137  4600.4282
1136  4601.3937
1135  4617.9937
1134  4766.7613
1133  4743.8025
1132  4725.6482
1131  4718.8361
1130  4773.4256
1129  4547.19
1128  4604.5323
1127  4562.858
1126  4638.9482
1125  4706.5571
1124  4830.141
1123  4672.5458
1122  4694.246
1121  4855.0579
1120  4654.892
1119  4780.8179
1118  4680.1364
1117  4824.8286
1116  4467.8748
1115  4627.0673
1114  4674.2317
1113  4495.4148
1112  4754.6262
1111  4770.9404
1110  4719.2995
1109  5104.8704
1108  4803.7889
1107  4780.6658
1106  5082.8983
1105  4909.2786
1104  4762.7842
1103  4699.8627
1102  4584.0163
1101  4540.4969
1100  4454.6057
1099  4873.8914
1098  4746.963
1097  4789.2558
1096  4849.1415
1095  4614.3989
1094  4669.1584
1093  4695.1876
1092  4632.8618
1091  4512.1119
1090  4652.1274
1089  4364.0858
1088  4696.8862
1087  4533.4898
1086  4655.663
1085  4595.0824
1084  4564.564
1083  4720.5943
1082  4633.4095
1081  4504.9503
1080  4598.8853
1079  4740.5973
1078  4764.753
1077  4612.3925
1076  4425.942
1075  4606.353
1074  4814.1523
1073  4940.9855
1072  4747.5199
1071  4642.9358
1070  4760.8911
1069  4702.8297
1068  4643.7199
1067  4761.6628
1066  4837.6481
1065  4715.3966
1064  4475.226
1063  4791.6648
1062  4836.3516
1061  4848.7917
1060  4805.9254
1059  4730.6186
1058  4613.2408
1057  4661.4927
1056  4749.7439
1055  4846.7894
1054  4918.8094
1053  4841.2972
1052  4816.3623
1051  4895.0538
1050  4772.3018
1049  4933.6452
1048  4883.9407
1047  4886.0798
1046  4948.8273
1045  4904.6192
1044  4991.5582
1043  5045.7116
1042  5013.3411
1041  4808.9743
1040  4962.1567
1039  4834.9865
1038  4991.8548
1037  4972.113
1036  4973.7441
1035  4825.6478
1034  4835.4218
1033  5014.9725
1032  5134.4908
1031  4769.6177
1030  5054.0352
1029  5089.1296
1028  4904.8685
1027  5033.3676
1026  5019.3869
1025  5200.0516
1024  5196.8498
1023  5112.196
1022  5076.256
1021  5252.8266
1020  5439.434
1019  5106.3052
1018  5083.947
1017  5355.2235
1016  5289.4276
1015  5565.8702
1014  5596.1742
1013  5560.7575
1012  5401.8233
1011  5024.8694
1010  5137.99
1009  5144.4971
1008  5169.1901
1007  5327.8982
1006  5374.8865
1005  5347.8094
1004  5237.3923
1003  5223.1545
1002  5363.3086
1001  5555.6852
1000  5849.2574
999  5639.7196
998  5742.3179
997  5954.7509
996  5706.8347
995  5626.4995
994  5532.3598
993  5874.6118
992  5818.1082
991  5518.7669
990  5637.4662
989  5222.8982
988  5125.3423
987  5245.0699
986  5379.5393
985  5518.0927
984  5518.7317
983  5267.8062
982  5458.69
981  5779.6329
980  5886.0977
979  6031.063
978  6338.8592
977  6240.6054
976  6450.5779
975  6070.495
974  5775.244
973  5357.5081
972  5373.929
971  5396.8211
970  5052.0206
969  4923.5141
968  4955.4484
967  4857.3063
966  4903.8662
965  4766.0355
964  4657.7625
963  4554.4325
962  4623.5962
961  4694.209
960  4411.0966
959  4347.8745
958  4329.9257
957  4646.8014
956  4533.8419
955  4517.8973
954  4699.3551
953  4386.7256
952  4445.2369
951  4533.3137
950  4540.7863
949  4364.8113
948  4560.8581
947  4547.7768
946  4508.9539
945  4422.7945
944  4515.9616
943  4502.1258
942  4680.9277
941  4642.0202
940  4354.5468
939  4508.6064
938  4737.4571
937  4700.1504
936  4718.9431
935  4868.3014
934  4545.7603
933  4610.2881
932  4651.9865
931  4750.064
930  4859.2859
929  4583.8546
928  4548.3556
927  4596.7265
926  4727.3684
925  4745.9871
924  4836.2397
923  4539.294
922  4734.0486
921  4809.921
920  4787.6963
919  4945.2923
918  4483.6191
917  4671.6386
916  4676.0509
915  4912.2547
914  5000.2216
913  4835.6281
912  4811.8175
911  4861.275
910  4850.3123
909  4869.7589
908  4935.0521
907  4930.4184
906  4816.8089
905  4837.1745
904  4950.2954
903  4698.5406
902  4795.4092
901  4867.0765
900  4891.1343
899  4979.7535
898  4851.4549
897  4782.4924
896  5074.827
895  4940.9436
894  4638.7059
893  4919.8244
892  4906.8028
891  4845.9645
890  4922.6531
889  4926.617
888  5053.4169
887  5271.7389
886  5223.3569
885  5053.4854
884  5081.071
883  4909.277
882  4952.8158
881  5088.8644
880  5233.7597
879  5071.7215
878  5327.7268
877  5203.9828
876  5242.8227
875  5202.2973
874  5216.551
873  5151.2802
872  5427.9708
871  5159.8036
870  5140.4149
869  5409.1599
868  5118.909
867  5119.2169
866  5111.5311
865  5399.8268
864  5497.7797
863  5365.388
862  5033.4735
861  5246.8498
860  5435.7633
859  5302.7016
858  5235.6983
857  5288.3095
856  5146.861
855  5272.5672
854  5229.117
853  5519.7552
852  5264.011
851  5554.8099
850  5313.9875
849  5157.6084
848  5259.2437
847  5487.0841
846  5535.5335
845  5555.6771
844  5216.4423
843  5355.4455
842  5426.1019
841  5689.4949
840  5723.9858
839  5794.4209
838  5535.8853
837  5432.7588
836  5575.8637
835  5535.4331
834  5323.7099
833  5311.3317
832  5318.5507
831  5352.0643
830  5631.3025
829  5627.7488
828  5680.0001
827  5388.1172
826  5226.5971
825  5617.0341
824  5430.7464
823  5091.9341
822  5341.2474
821  5594.93
820  5842.1626
819  5516.327
818  5689.0932
817  5703.269
816  5664.9496
815  5740.7046
814  5526.2558
813  5433.7105
812  5925.7513
811  5771.3573
810  5569.12
809  5719.8222
808  5575.1431
807  5463.2187
806  5697.4347
805  5816.097
804  5723.6403
803  5593.5764
802  5439.836
801  5873.5453
800  5953.1076
799  5818.3984
798  5628.827
797  5714.1985
796  5829.4961
795  5698.4066
794  6077.3525
793  5868.8354
792  5937.8455
791  5931.7251
790  5702.6458
789  5687.9155
788  5998.7622
787  5992.918
786  6269.3735
785  5840.6346
784  5915.1197
783  6016.9323
782  6006.3724
781  5943.3752
780  6049.5924
779  6221.4999
778  5914.3402
777  5855.9642
776  6073.6631
775  5949.6345
774  6104.2906
773  6036.4439
772  6067.9217
771  6159.7831
770  5962.5735
769  6287.7164
768  6335.4544
767  6110.9125
766  5969.2111
765  6165.1816
764  6006.5109
763  5924.7024
762  6220.2234
761  6321.1136
760  6131.5713
759  6198.7542
758  6240.3864
757  6114.7097
756  6263.7174
755  6081.997
754  6044.5028
753  6453.2504
752  6360.3646
751  5998.5636
750  6097.0347
749  6119.8707
748  6467.655
747  6308.0868
746  6229.2559
745  6350.7574
744  6191.6279
743  6294.4618
742  6379.4298
741  6363.5368
740  6394.4154
739  6285.1566
738  6253.3059
737  6424.7969
736  6244.5894
735  6537.707
734  6508.1042
733  6427.8373
732  6276.7391
731  6834.3767
730  6463.9283
729  6412.4281
728  6749.69
727  6600.6492
726  6625.0986
725  6596.0298
724  6530.5996
723  6574.097
722  6591.1509
721  6627.6243
720  6462.4966
719  6542.966
718  6433.7279
717  6428.2093
716  6781.7482
715  6534.1932
714  6687.2638
713  6448.5558
712  6390.0349
711  6472.887
710  6296.3681
709  6362.4724
708  6634.6511
707  6866.2693
706  6505.2452
705  6832.6989
704  6395.4867
703  6551.0887
702  6434.6614
701  6465.3456
700  6394.8282
699  6589.5219
698  6564.4722
697  6773.4086
696  6556.9942
695  6747.3526
694  6515.3251
693  6664.3352
692  6615.0335
691  6870.1614
690  6691.718
689  6766.0248
688  6715.3561
687  6735.4352
686  6714.3999
685  6590.9481
684  6818.712
683  6957.1871
682  6941.9633
681  6845.9505
680  6807.2105
679  6927.7017
678  7066.5294
677  7027.7274
676  6776.2753
675  7076.2726
674  6646.5888
673  6757.9276
672  6883.079
671  6612.664
670  6806.4632
669  7167.7277
668  6957.8722
667  7125.9052
666  6937.7563
665  6741.1382
664  6912.7348
663  6919.3266
662  6912.346
661  7028.5099
660  7018.147
659  6800.8894
658  6987.4919
657  7179.8251
656  7158.6239
655  7372.6134
654  6916.0328
653  7060.7152
652  7034.1109
651  6977.2749
650  7064.7612
649  7095.8623
648  7396.9421
647  7229.8207
646  7282.9188
645  7206.641
644  7018.9811
643  7134.3303
642  6969.8574
641  7063.1196
640  7185.78
639  6902.7893
638  7107.4572
637  7148.3383
636  7208.3809
635  7351.6961
634  7292.322
633  7486.2732
632  7458.6285
631  7309.6174
630  7190.362
629  7357.0876
628  7478.2742
627  7355.6255
626  7282.3955
625  7276.5274
624  7566.7023
623  7967.6139
622  7711.7639
621  7623.7412
620  7547.3519
619  7683.4048
618  7496.4588
617  7561.476
616  7545.821
615  7540.9888
614  7196.253
613  7504.3909
612  7522.965
611  7577.694
610  7601.116
609  7536.6268
608  7465.5216
607  7659.3138
606  7728.6725
605  7662.5206
604  7737.7835
603  7972.0454
602  8032.9168
601  7897.5514
600  7927.8387
599  8110.9451
598  7908.8814
597  8045.5497
596  7804.4006
595  7739.6334
594  7699.3034
593  8062.6234
592  8123.2257
591  8115.4113
590  8347.5725
589  7907.6233
588  8202.0256
587  7966.3574
586  7998.3181
585  8215.1693
584  8146.6759
583  8425.3524
582  8301.5621
581  8093.0345
580  8432.014
579  8147.851
578  7593.2732
577  7898.5
576  8358.2604
575  8162.2128
574  7984.0805
573  8253.4267
572  8145.8367
571  8325.2951
570  8538.4305
569  8591.5705
568  8296.902
567  8724.4045
566  8599.1006
565  8387.9262
564  8453.2482
563  8308.8203
562  8388.1737
561  8403.7981
560  8254.6562
559  8465.5676
558  8641.4378
557  8573.2342
556  8708.3026
555  8694.357
554  8927.5193
553  8671.997
552  8917.8644
551  8980.3577
550  9197.5852
549  9346.1857
548  9252.0487
547  9084.2892
546  8638.116
545  8692.666
544  8184.6867
543  8283.6994
542  8215.1047
541  7998.655
540  8133.2143
539  8193.9468
538  8441.7965
537  8371.6656
536  8168.6461
535  8496.8851
534  9366.5068
533  10930.934
532  15746.471
531  16603.095
530  9451.3081
529  8248.0432
528  7920.1871
527  7750.6302
526  7657.9129
525  7690.2115
524  7759.2396
523  7933.6881
522  7854.4653
521  7548.3559
520  8043.205
519  8123.1964
518  7889.8578
517  7659.4142
516  7729.8838
515  7468.9435
514  8125.4089
513  7868.1168
512  7817.4823
511  7759.2957
510  8018.7016
509  8045.2342
508  7964.2759
507  7787.3936
506  7809.4933
505  7932.3555
504  7872.4816
503  7759.0049
502  7830.3467
501  7985.2581
500  8147.7291
499  8227.6779
498  8404.9247
497  7953.5797
496  7767.4965
495  7933.8465
494  8184.676
493  7735.1057
492  7763.6772
491  8020.4014
490  8015.1038
489  8118.5832
488  8064.7139
487  8246.6614
486  8193.7373
485  8229.4965
484  8382.3613
483  7902.2807
482  8110.4283
481  8217.0914
480  8131.4409
479  8052.517
478  8119.1131
477  8313.9614
476  7988.2618
475  8033.7724
474  8204.1597
473  8390.728
472  8553.5737
471  8059.0689
470  8114.0719
469  8133.7213
468  8010.7184
467  7947.8032
466  8500.4615
465  8295.1096
464  8235.4107
463  8231.5893
462  8036.6727
461  7864.9684
460  8465.891
459  8468.3033
458  8297.604
457  8602.1185
456  8674.7703
455  8729.215
454  8610.9933
453  8713.6373
452  8463.9544
451  8317.1636
450  8218.431
449  8477.5224
448  8607.5339
447  8489.4652
446  8664.1709
445  8541.1883
444  8709.9982
443  8729.8317
442  8375.4356
441  8698.1418
440  8946.8512
439  8874.806
438  8818.9987
437  8874.951
436  8905.4333
435  8794.106
434  8796.5577
433  8662.2989
432  9073.8132
431  8944.6698
430  8861.42
429  8676.5842
428  8790.2533
427  9018.9737
426  8789.1687
425  8970.2242
424  8955.8264
423  8963.7853
422  9040.3436
421  8859.1655
420  9073.1205
419  8778.823
418  8944.9328
417  9088.1228
416  8932.4546
415  9135.224
414  8938.991
413  9223.6687
412  9372.8932
411  9318.3055
410  9214.1221
409  9134.8205
408  9073.1607
407  8985.2568
406  9463.6229
405  9389.6706
404  8866.8986
403  9345.7906
402  8728.4011
401  9148.5267
400  9014.8028
399  9107.9875
398  9416.5506
397  10353.954
396  9451.5283
395  9313.3661
394  9534.0774
393  9439.8397
392  9337.5565
391  9302.0083
390  9160.6511
389  8878.318
388  9087.8464
387  9230.3661
386  9139.1526
385  9162.7775
384  9438.5939
383  9512.8739
382  9037.7283
381  9293.9855
380  9390.3858
379  9076.1621
378  9629.2394
377  9345.1032
376  9455.326
375  9368.0213
374  9597.0539
373  9557.3365
372  9555.4492
371  9379.8527
370  9350.3491
369  9590.5043
368  9574.7855
367  9479.9215
366  9517.7595
365  9711.4191
364  9431.2778
363  9306.9123
362  9293.3115
361  9774.5569
360  9915.4993
359  9417.2296
358  9706.6165
357  9876.6054
356  10178.835
355  9919.3965
354  9496.8471
353  9377.1718
352  9918.924
351  9804.5652
350  10006.825
349  9554.1021
348  9878.7254
347  9859.2773
346  10041.369
345  10005.14
344  9938.8668
343  9945.2466
342  9971.02
341  9944.8056
340  10398.073
339  10470.729
338  10510.71
337  10066.82
336  10218.183
335  10140.604
334  10073.38
333  9637.9898
332  10148.777
331  9727.2971
330  9849.1784
329  9572.3258
328  9948.9535
327  10011.172
326  10028.086
325  10188.275
324  9934.0481
323  10002.977
322  10428.812
321  11381.629
320  11874.376
319  11810.267
318  11228.123
317  10369.193
316  9967.9824
315  9932.5478
314  9804.3628
313  9896.3468
312  10133.467
311  9804.7544
310  9765.8424
309  10001.141
308  10235.305
307  10134.362
306  10012.904
305  10049.447
304  10054.421
303  9819.2275
302  9642.8022
301  9937.8131
300  10094.218
299  9735.55
298  10195.372
297  10056.1
296  9967.4235
295  9793.0794
294  10251.225
293  10341.423
292  10238.947
291  10411.069
290  10214.869
289  10200.722
288  10618.118
287  10251.766
286  10306.083
285  10212.573
284  10600.615
283  11258.053
282  10992.137
281  10588.708
280  10934.702
279  10839.049
278  10929.181
277  10993.097
276  10647.533
275  10457.354
274  10449.4
273  10681.59
272  10819.986
271  10669.86
270  10607.516
269  10707.312
268  10711.789
267  10577.756
266  11332.256
265  10772.349
264  11152.98
263  11799.949
262  11626.496
261  11348.989
260  11765.333
259  11678.761
258  11375.497
257  11184.184
256  11188.225
255  10937.926
254  11046.224
253  11215.368
252  10731.516
251  10392.147
250  10666.323
249  10611.384
248  10543.717
247  10953.563
246  10879.65
245  12323.657
244  14882.657
243  14433.175
242  17746.824
241  12893.408
240  10763.554
239  10530.132
238  10431.425
237  10434.956
236  10582.956
235  10846.98
234  10917.844
233  10405.368
232  10771.649
231  11222.009
230  11201.86
229  10772.937
228  11402.279
227  11940.485
226  11016.568
225  11262.501
224  10843.861
223  11112.057
222  11244.288
221  11303.442
220  11508.066
219  10965.273
218  11295.303
217  11131.944
216  10801.476
215  11066.141
214  11119.81
213  11567.359
212  11168.353
211  11102.397
210  11529.85
209  11629.138
208  11660.662
207  11623.591
206  11615.208
205  11712.648
204  11662.284
203  12151.916
202  12318.7
201  11997.016
200  12298.956
199  12299.422
198  11985.323
197  11916.882
196  12121.297
195  11831.783
194  11620.152
193  11996.877
192  12520.34
191  12677.531
190  12545.975
189  13055.007
188  13572.582
187  13266.568
186  14071.403
185  13689.016
184  13729.339
183  13980.225
182  13258.92
181  12866.877
180  12864.295
179  12774.047
178  12616.293
177  12656.413
176  12240.961
175  12548.485
174  12624.18
173  12966.32
172  13878.078
171  14722.235
170  16025.364
169  17883.986
168  17268.058
167  16580.935
166  15818.15
165  14046.374
164  13262.578
163  12310.404
162  11493.026
161  11202.124
160  10985.935
159  10323.933
158  10402.419
157  10125.875
156  10805.9
155  11123.4
154  11823.515
153  14669.396
152  23041.734
151  41959.14
150  36216.62
149  14709.112
148  9419.3896
147  8124.9932
146  7402.7183
145  7158.8758
144  7096.6321
143  6862.4122
142  6698.0064
141  6850.87
140  7086.7793
139  7304.3842
138  7533.6731
137  7646.2533
136  7989.8731
135  7891.4457
134  7630.7906
133  7953.8752
132  8035.8576
131  7214.9552
130  6947.4428
129  7020.461
128  6783.39
127  6308.6035
126  6480.7386
125  6649.2214
124  6592.3987
123  6422.7087
122  6870.4056
121  7323.3004
120  7836.7514
119  8949.896
118  10247.181
117  11028.49
116  10828.065
115  9534.6959
114  7958.5555
113  6703.6232
112  6058.2166
111  5277.8729
110  4650.2657
109  4440.6179
108  4146.4211
107  3787.5132
106  3544.0567
105  3622.3362
104  3752.1619
103  4098.0667
102  5386.7714
101  10422.833
100  33166.256
99  38799.485
98  6410.7941
97  1058.8218
96  747.9556
95  746.44067
94  667.14099
93  673.166
92  630.58501
91  642.78047
90  630.11848
89  620.53772
88  637.79146
87  699.65756
86  662.17025
85  706.55492
84  655.18147
83  612.93999
82  704.41258
81  681.62357
80  606.54935
79  637.13721
78  674.29723
77  630.30012
76  623.7947
75  698.11032
74  707.27014
73  608.64004
72  662.98207
71  778.82447
70  675.65091
69  631.4218
68  620.59586
67  676.5308
66  726.77615
65  720.10655
64  781.26017
63  742.73118
62  778.71001
61  708.05239
60  685.79137
59  760.30401
58  836.53764
57  797.02287
56  808.52827
55  893.9152
54  781.06331
53  814.17203
52  860.073
51  870.34263
50  839.29562
49  810.61732
48  839.57715
47  894.09394
46  804.82722
45  986.27604
44  953.18511
43  873.99279
42  863.61091
41  960.61595
40  949.46033
39  864.56405
38  979.56509
37  954.06116
36  884.69576
35  906.76083
34  836.41247
33  846.76648
32  891.95866
31  748.51524
30  887.19455
29  915.87771
28  1050.6674
27  977.14487
26  1091.4166
25  1257.3829
24  1371.504
23  1637.7321
22  1528.3066
21  960.65988
20  812.36688
19  750.8921
18  669.39888
17  564.05502
16  571.49613
15  506.62969
14  504.90259
13  759.31135
12  935.95894
11  937.80446
10  1508.5231
9  1940.8194
8  1304.21
7  964.40155
6  824.91675
5  883.12966
4  904.20282
3  946.55802
2  839.02629
1  478.65048
0  106.74881