# Region:            Survey (8)
# Acquisition Date:  11/11/19 15:51:43 UTC
# Analysis Method:   XPS
# Analyzer:          Phoibos
# Analyzer Lens:     MediumArea:1.5kV
# Analyzer Slit:     4:3x20\B:open
# Scan Mode:         FixedAnalyzerTransmission
# Curves/Scan:       1
# Values/Curve:      1301
# Dwell Time:        0.1
# Excitation Energy: 1486.71
# Binding Energy:    1300
# Pass Energy:       50
# Bias Voltage:      90
# Detector Voltage:  1900
# Eff. Workfunction: 4.395
# Source:            Focus
# Comment:           Decapado 10 minutos
#
# Cycle: 0
# Number of Scans: 2
#
# Cycle: 0, Curve: 0
# Acquisition Date: 11/11/19 15:51:43 UTC
#
# ColumnLabels: energy counts/s
#
1300  7291.08
1299  7469.8506
1298  7201.3442
1297  7109.6357
1296  7161.4823
1295  7116.5578
1294  7265.1808
1293  7318.0532
1292  7294.2554
1291  7111.5881
1290  6931.7372
1289  7187.4789
1288  7232.7875
1287  7062.1243
1286  6771.2591
1285  6953.3383
1284  6740.9127
1283  6943.6835
1282  6561.8324
1281  6930.5694
1280  6924.2294
1279  6367.4774
1278  6433.8916
1277  6485.3522
1276  6482.3788
1275  6381.4971
1274  6458.2901
1273  6959.8482
1272  6669.3428
1271  6841.5736
1270  6743.9995
1269  6876.921
1268  6891.3679
1267  6476.9009
1266  6620.7933
1265  6510.9169
1264  6354.3056
1263  6342.2612
1262  6288.7726
1261  6303.6353
1260  6299.6912
1259  6309.4908
1258  6276.4517
1257  6169.4057
1256  6469.8145
1255  6199.8347
1254  6153.868
1253  6182.8384
1252  5990.4996
1251  6256.0689
1250  6302.5045
1249  6223.4502
1248  5861.7711
1247  6284.3554
1246  6361.861
1245  5923.2202
1244  6299.4652
1243  6430.6479
1242  6478.2015
1241  6305.0129
1240  6080.0816
1239  5975.7646
1238  6170.834
1237  6170.1794
1236  6256.6185
1235  6065.8759
1234  6196.6825
1233  5770.2518
1232  5817.5242
1231  6149.0096
1230  6450.0586
1229  6125.8761
1228  6102.1711
1227  6304.3314
1226  6275.6765
1225  6162.5316
1224  6130.0752
1223  6178.4543
1222  5789.0408
1221  5962.1864
1220  6194.7679
1219  6148.5685
1218  5885.2301
1217  5910.2172
1216  6001.0259
1215  6139.1087
1214  6085.0816
1213  5819.8476
1212  5893.3036
1211  5856.3787
1210  5976.5242
1209  6216.6427
1208  6011.4021
1207  5963.1564
1206  6299.2799
1205  6131.8357
1204  5777.1913
1203  5811.8347
1202  5785.7113
1201  6152.4437
1200  6140.4754
1199  6085.2885
1198  6031.5554
1197  5969.0868
1196  5918.7828
1195  6072.9748
1194  5911.2507
1193  6077.3208
1192  5884.7603
1191  5964.5902
1190  5971.3961
1189  6044.8664
1188  5912.9832
1187  5861.2295
1186  5825.4253
1185  5814.5435
1184  5708.6846
1183  5927.9622
1182  5957.6674
1181  6029.8103
1180  5848.1115
1179  5860.213
1178  5823.4205
1177  5670.7633
1176  5643.5979
1175  6019.577
1174  6012.007
1173  5651.5838
1172  5855.3453
1171  5762.079
1170  6033.3773
1169  6056.1622
1168  6021.3078
1167  5807.0238
1166  5740.8777
1165  5744.5625
1164  5936.4696
1163  5921.4632
1162  5985.0393
1161  5801.0392
1160  5682.0228
1159  5941.4241
1158  5954.3525
1157  5911.4113
1156  5654.7754
1155  5853.7495
1154  5975.4958
1153  5840.0141
1152  5970.8608
1151  5951.2339
1150  5826.3671
1149  5692.6163
1148  5903.0873
1147  5830.1535
1146  6174.891
1145  5923.1023
1144  5705.4101
1143  5750.2043
1142  5839.2511
1141  6169.5296
1140  5992.0467
1139  5690.8369
1138  6090.8348
1137  5946.2755
1136  5823.8137
1135  6008.5159
1134  5921.9643
1133  5881.4846
1132  5953.0287
1131  6250.3137
1130  6233.1447
1129  6470.2949
1128  6179.7609
1127  6359.7356
1126  6168.2237
1125  6034.2348
1124  5982.4698
1123  6051.836
1122  6340.8152
1121  6240.0863
1120  6065.8087
1119  6041.8557
1118  6076.7562
1117  6376.3413
1116  5891.808
1115  6175.6879
1114  6263.1032
1113  5865.8769
1112  6024.7395
1111  5976.5913
1110  6041.9539
1109  6070.8687
1108  6060.5911
1107  6038.3349
1106  6163.761
1105  6241.7824
1104  6388.335
1103  6283.4072
1102  6099.0882
1101  6201.7211
1100  5904.5415
1099  6429.056
1098  6334.243
1097  6033.7381
1096  6088.3902
1095  6086.4256
1094  6263.3609
1093  5781.6091
1092  6179.314
1091  5870.4041
1090  6009.2443
1089  5849.9912
1088  5976.5105
1087  5859.8333
1086  6013.9924
1085  6204.2885
1084  6503.9824
1083  6272.6848
1082  6198.1851
1081  6351.5189
1080  6282.9705
1079  6227.7229
1078  6315.9643
1077  6413.1331
1076  6305.6922
1075  6569.6834
1074  6733.0629
1073  6931.8383
1072  6715.2165
1071  6411.1398
1070  6543.6427
1069  6309.4346
1068  6199.1123
1067  6289.1068
1066  6379.5278
1065  6382.5996
1064  6535.7437
1063  6553.3816
1062  6383.9802
1061  6477.1944
1060  6436.1203
1059  6432.3542
1058  6663.6254
1057  6809.5071
1056  6667.8333
1055  6542.2096
1054  6648.226
1053  6504.7183
1052  6403.2181
1051  6418.2038
1050  6443.4003
1049  6530.3758
1048  6792.862
1047  6987.1617
1046  6679.5651
1045  6893.2827
1044  6874.5963
1043  6822.5086
1042  6754.8621
1041  6921.6426
1040  6961.7719
1039  6782.2186
1038  6951.2348
1037  6954.3126
1036  7002.2291
1035  7210.0832
1034  6953.7267
1033  7200.0043
1032  7170.0665
1031  7358.7168
1030  7412.9426
1029  7415.9661
1028  7317.1719
1027  7328.7706
1026  7382.2216
1025  7366.4701
1024  7507.6279
1023  7595.9691
1022  7512.4719
1021  7614.6557
1020  7670.059
1019  7733.8841
1018  7940.2907
1017  7878.657
1016  8209.6228
1015  8364.9505
1014  8403.1125
1013  8426.7786
1012  8283.2526
1011  8206.0097
1010  8225.4528
1009  7896.0558
1008  8111.1926
1007  8464.8862
1006  8598.4947
1005  8459.8323
1004  8463.8579
1003  8964.24
1002  9279.4861
1001  9364.3072
1000  9331.7926
999  10043.177
998  9625.6186
997  9547.5181
996  8994.2054
995  8578.2305
994  8755.6406
993  8364.5798
992  8287.1097
991  8147.5605
990  8153.0287
989  8271.0867
988  8052.1423
987  8102.5232
986  8475.393
985  8957.4738
984  9234.8938
983  9508.8008
982  10207.173
981  10668.914
980  11618.761
979  12709.741
978  12622.19
977  12372.209
976  11410.004
975  9986.5883
974  8813.165
973  7581.9489
972  7158.8892
971  6638.1934
970  6298.1048
969  6214.7388
968  5786.827
967  5456.8798
966  5071.5163
965  4735.2419
964  5031.2076
963  4596.5429
962  4767.9853
961  4961.848
960  4758.3269
959  4592.7047
958  4414.4227
957  4337.7038
956  4452.1073
955  4505.8634
954  4713.3498
953  4599.407
952  4644.6352
951  4591.8293
950  4453.3884
949  4380.445
948  4597.8877
947  4724.6175
946  4846.0463
945  4742.2296
944  4768.1458
943  4939.5039
942  4655.5966
941  4844.758
940  4623.8604
939  4932.4698
938  4982.8873
937  4610.7958
936  4656.7045
935  4564.2324
934  4931.5405
933  4637.257
932  4566.4746
931  4620.2579
930  4506.8688
929  4762.8752
928  4842.985
927  4684.6885
926  4845.619
925  5008.3244
924  4879.7383
923  4924.1834
922  4773.3932
921  4742.4212
920  4941.7491
919  4640.7498
918  5013.1813
917  4857.0146
916  4960.6659
915  4864.7391
914  5325.6204
913  5207.8436
912  5013.1252
911  4980.513
910  4956.6518
909  4998.0086
908  4963.715
907  5087.818
906  5128.626
905  5283.2562
904  5193.8526
903  5194.9177
902  4958.7022
901  4647.0311
900  5007.4751
899  5218.5272
898  5164.6509
897  5208.4567
896  5120.5521
895  4930.399
894  4816.9851
893  5164.5775
892  4929.9756
891  4956.343
890  4869.5791
889  5301.6328
888  5515.3306
887  5189.4044
886  5142.0362
885  5016.291
884  5479.3974
883  5171.3089
882  5086.2517
881  5230.5259
880  5102.8099
879  5029.1655
878  5395.4883
877  5276.6367
876  5335.52
875  5159.1428
874  5296.7616
873  5159.9806
872  5269.0355
871  5101.6
870  5379.0011
869  5165.9285
868  4902.6164
867  5309.0407
866  5254.8828
865  5295.153
864  5376.9864
863  5400.455
862  5381.6338
861  5230.4244
860  5351.5935
859  5613.1921
858  5505.739
857  5385.322
856  5366.5771
855  5432.2102
854  5354.116
853  5502.9181
852  5525.9789
851  5788.1812
850  5510.9502
849  5754.5779
848  5571.7785
847  5705.198
846  5558.6508
845  5539.5614
844  5982.2585
843  5601.8175
842  5341.5161
841  5360.4464
840  5464.6588
839  5602.7905
838  5563.3608
837  5714.6632
836  5857.8252
835  5560.7027
834  5468.8378
833  5589.4449
832  5606.4267
831  5584.4856
830  5577.7969
829  5629.7195
828  5654.4547
827  5479.6825
826  5940.4209
825  6012.0637
824  5674.0412
823  5607.0992
822  5732.8859
821  5679.9673
820  5781.871
819  5745.3193
818  5908.3635
817  5803.6905
816  5863.212
815  5859.5683
814  5949.3889
813  5871.6564
812  5736.2529
811  5783.1119
810  5832.0838
809  5553.0291
808  5822.5803
807  5774.7768
806  5750.8899
805  5633.6179
804  5995.5134
803  5976.3828
802  5763.3875
801  5772.6057
800  5936.2219
799  5945.6759
798  5864.1693
797  6084.6317
796  6082.3412
795  5887.229
794  5782.7501
793  5968.9869
792  5774.3964
791  6101.2971
790  6306.4743
789  6339.2221
788  6150.8077
787  6211.6979
786  5993.1821
785  5800.2284
784  6010.4221
783  6053.1356
782  6063.2716
781  5939.746
780  5993.0047
779  6109.5437
778  6411.2896
777  6190.8593
776  6237.889
775  6016.0718
774  6025.6644
773  5970.7569
772  6050.8054
771  5964.2279
770  6004.7405
769  5806.8126
768  5953.9126
767  6200.5922
766  6201.2462
765  6209.3434
764  6206.8675
763  6524.0792
762  6372.1497
761  6285.1149
760  6255.933
759  6546.4805
758  6372.1964
757  6338.3363
756  6407.5196
755  6178.8374
754  6367.6787
753  6336.2246
752  6493.1906
751  6457.6711
750  6300.4604
749  6405.4696
748  6626.0644
747  6436.0382
746  6213.0113
745  6252.7011
744  6419.3688
743  6383.7524
742  6452.3576
741  6808.3632
740  6523.1679
739  6564.3987
738  6332.3886
737  6574.9354
736  6777.3221
735  6627.2476
734  6494.9085
733  6654.7176
732  6307.1939
731  6295.7581
730  6620.4301
729  6462.3772
728  6600.856
727  6498.9595
726  6656.7276
725  6652.6178
724  6730.1293
723  6903.3961
722  6727.4673
721  6918.2221
720  6950.172
719  6774.1655
718  6484.5693
717  6523.7938
716  6758.7864
715  6846.3369
714  6453.6106
713  6900.2464
712  6928.5034
711  6860.1444
710  6825.9256
709  7036.2748
708  6745.5992
707  6807.4155
706  6361.5104
705  6823.804
704  7131.9344
703  6807.0425
702  7004.1356
701  7024.4559
700  6924.6508
699  6945.9603
698  6896.9192
697  6990.9599
696  7156.0381
695  6957.469
694  6963.9022
693  7053.4937
692  7311.6691
691  7175.3097
690  7096.4373
689  6997.7023
688  7110.2048
687  7072.6551
686  7005.3547
685  6997.5111
684  6916.1977
683  6810.0499
682  7141.1457
681  7398.4397
680  7153.5886
679  7394.4744
678  7256.7754
677  7021.5646
676  7419.4859
675  7418.021
674  6832.9229
673  7114.0941
672  7167.7405
671  7376.4948
670  7344.7687
669  7128.1312
668  7016.3641
667  7660.9261
666  7554.1347
665  7490.1831
664  7641.447
663  7646.4299
662  7570.7459
661  7692.9242
660  7361.4729
659  7459.0243
658  7485.3422
657  7755.6303
656  7648.97
655  7397.9952
654  7562.6721
653  7676.6782
652  7488.753
651  7640.7592
650  7798.9126
649  7888.1476
648  7514.057
647  7778.6074
646  7634.9645
645  7677.3168
644  7933.1238
643  8142.6837
642  7887.5996
641  7922.0187
640  8000.7294
639  8211.4814
638  8171.6315
637  8253.9995
636  8088.8592
635  7937.7504
634  7931.6602
633  7883.0354
632  8127.5563
631  8183.7575
630  7847.1671
629  8303.316
628  8363.5551
627  8114.0792
626  8274.5646
625  8191.4054
624  7961.2036
623  8122.3287
622  8220.0917
621  8361.7941
620  8128.6011
619  8241.7254
618  8452.6897
617  8566.2991
616  8284.6864
615  8248.273
614  8176.2872
613  8532.803
612  8495.7684
611  8392.9312
610  8327.3355
609  8680.8976
608  8678.0887
607  8485.1386
606  8658.1584
605  9049.5931
604  9124.0364
603  8748.482
602  9026.5179
601  8797.2651
600  8756.7959
599  8835.5892
598  8930.0923
597  9010.9059
596  9140.1865
595  9053.8967
594  9215.081
593  9072.6805
592  9261.0437
591  9235.0898
590  9219.5781
589  9497.175
588  9437.046
587  9562.8361
586  9752.8261
585  9659.0846
584  9586.737
583  9777.2152
582  9904.5172
581  10134.639
580  9967.2014
579  9906.8382
578  10360.703
577  10001.625
576  9741.1223
575  10011.793
574  10359.251
573  10206.38
572  10334.776
571  10399.541
570  10215.404
569  9969.7158
568  10179.006
567  10435.635
566  9905.0623
565  10042.978
564  10350.971
563  10496.521
562  10714.008
561  10406.82
560  10738.492
559  10832.441
558  11330.013
557  11062.21
556  10954.407
555  11306.741
554  11222.565
553  11010.329
552  11283.17
551  11302.937
550  11379.614
549  11120.833
548  10586.592
547  10648.91
546  10582.695
545  10256.77
544  9796.0745
543  9436.0252
542  9339.4703
541  9246.4241
540  9316.1214
539  9164.1863
538  9191.4364
537  8933.2616
536  9291.3525
535  10543.956
534  17033.639
533  33264.892
532  43787.26
531  26831.076
530  10571.879
529  7794.481
528  7475.2579
527  7779.5274
526  7292.9784
525  7366.6449
524  7403.1521
523  7570.1799
522  7334.036
521  7499.8891
520  7397.9658
519  7329.3016
518  7309.621
517  7212.9633
516  7524.095
515  7237.0572
514  7545.3759
513  7380.4481
512  7373.9201
511  7598.9944
510  7472.4711
509  7700.4542
508  7601.5574
507  7676.5806
506  7709.8438
505  7844.7503
504  7768.6948
503  7749.7466
502  7588.025
501  7498.2636
500  7511.1851
499  7598.9403
498  7640.3041
497  7951.2033
496  7718.3333
495  7732.443
494  7818.8642
493  7784.5438
492  7495.3807
491  7268.5417
490  7801.5723
489  7516.6989
488  7646.4303
487  7835.3093
486  7746.9064
485  7577.0969
484  7558.4189
483  7698.2048
482  7480.3516
481  7483.1217
480  7959.4739
479  7765.1041
478  7661.5168
477  7713.8711
476  7728.2675
475  7494.9641
474  7823.1471
473  7425.5195
472  7609.1441
471  7991.5013
470  7996.4421
469  7884.0725
468  7855.4766
467  7708.9506
466  8304.9228
465  7897.9341
464  7725.6644
463  7871.7961
462  7865.6734
461  8003.4738
460  8071.496
459  7878.3605
458  7858.7714
457  7822.4304
456  8027.8815
455  7882.507
454  7934.227
453  8064.346
452  7939.2903
451  8180.1192
450  8137.9606
449  7988.8099
448  7920.7055
447  7895.1839
446  7921.0514
445  7832.9754
444  7928.7855
443  8181.5759
442  8278.9617
441  7901.6779
440  8009.1417
439  8021.6237
438  8285.4026
437  8443.6536
436  8351.3658
435  8212.668
434  8070.0615
433  8220.0232
432  8501.4749
431  8468.1774
430  8242.7188
429  8273.4086
428  8181.1266
427  8251.8465
426  8292.0543
425  8278.4997
424  8249.4343
423  8440.7877
422  8507.0382
421  8375.6513
420  8278.3567
419  8464.5419
418  8276.1692
417  8610.5769
416  8039.834
415  8187.5237
414  8447.023
413  8392.792
412  8298.8266
411  8489.3828
410  8261.8429
409  8081.7083
408  8173.8295
407  8462.0671
406  8444.8508
405  8619.7001
404  8324.4518
403  8437.114
402  8632.6795
401  8520.7308
400  8629.1266
399  9474.7644
398  9649.7926
397  9799.0933
396  8669.2636
395  8656.7796
394  8699.5808
393  8512.2443
392  8502.7009
391  8623.8233
390  8658.2867
389  8476.6462
388  8321.5251
387  8571.0943
386  8622.9817
385  8357.8081
384  8563.6855
383  8547.7369
382  8893.1844
381  8881.4641
380  9007.6907
379  8652.7559
378  8650.8561
377  8423.812
376  8815.0119
375  8705.6088
374  8572.9377
373  8818.195
372  8607.0244
371  8946.3793
370  8551.8508
369  8723.0363
368  8828.9582
367  8798.9245
366  8741.7565
365  8617.6025
364  8938.7743
363  8987.6706
362  9047.466
361  9076.8196
360  9285.2201
359  8825.3862
358  8732.9449
357  9105.9029
356  8934.1809
355  8916.7355
354  9005.4977
353  9165.9213
352  9063.4852
351  8548.8269
350  9002.6385
349  9320.9403
348  9453.1351
347  9100.3825
346  9001.0719
345  9042.9228
344  8962.5001
343  8952.9264
342  8973.574
341  9166.2482
340  9318.6668
339  9512.5354
338  9260.0103
337  9257.8392
336  9567.3928
335  9427.5645
334  9299.7281
333  9079.0208
332  9147.3223
331  9337.9805
330  8844.1286
329  8854.4639
328  9190.1532
327  8978.2783
326  9447.2323
325  9428.9137
324  9354.542
323  9265.9692
322  9745.9536
321  9948.0898
320  10495.441
319  10604.329
318  9608.0146
317  9002.6672
316  9159.2925
315  9418.258
314  9231.9237
313  8815.3969
312  9157.131
311  9045.7585
310  9158.4965
309  9429.4532
308  9553.1762
307  9226.9937
306  9453.7088
305  9333.404
304  9407.3819
303  9417.1553
302  9511.0469
301  9171.2278
300  9303.88
299  9500.2525
298  9730.0664
297  9417.3214
296  9466.5295
295  9649.6963
294  9403.2015
293  9594.9444
292  9712.8911
291  9504.1701
290  9814.0519
289  9442.2566
288  9510.0569
287  9679.15
286  9967.9856
285  9474.9407
284  9767.1441
283  9937.6828
282  9939.6013
281  9779.0604
280  9951.02
279  9523.4607
278  9878.541
277  9638.0279
276  9849.6698
275  10014.974
274  9812.1396
273  10074.34
272  10001.561
271  9911.0479
270  10173.596
269  10586.815
268  10199.965
267  9981.197
266  10133.889
265  10034.906
264  10263.188
263  10592.587
262  10540.265
261  10312.181
260  10467.631
259  10253.23
258  10077.855
257  9650.2581
256  10319.064
255  10147.22
254  9918.4186
253  10058.602
252  10376.873
251  10265.612
250  9876.6239
249  9955.5874
248  9802.8729
247  10055.764
246  10136.838
245  10452.868
244  11988.717
243  11600.093
242  14311.344
241  11751.411
240  10339.531
239  9710.6992
238  9853.4328
237  9964.6381
236  9911.4023
235  9860.7641
234  10172.16
233  10131.989
232  10029.103
231  10327.364
230  10094.784
229  10279.017
228  10478.249
227  10444.501
226  10653.144
225  10304.027
224  10038.244
223  10087.384
222  10400.148
221  10478.989
220  10420.887
219  10421.329
218  10383.252
217  10332.101
216  10274.663
215  10329.087
214  10524.322
213  10549.919
212  10730.869
211  10647.511
210  10386.326
209  10942.963
208  10735.417
207  10721.572
206  11062.928
205  11141.857
204  10778.651
203  10662.791
202  11000.066
201  11307.489
200  11332.343
199  10901.443
198  10722.994
197  10751.328
196  10954.954
195  10829.763
194  10996.966
193  10990.758
192  11037.087
191  11103.857
190  11162.483
189  11213.877
188  12141.093
187  12135.772
186  11885.494
185  11583.133
184  11668.002
183  11638.508
182  11649.457
181  11608.848
180  11497.267
179  11509.679
178  11431.507
177  11284.536
176  11601.612
175  11767.654
174  12099.885
173  12615.619
172  12705.321
171  12870.238
170  13696.055
169  13911.083
168  14245.25
167  13450.393
166  12404.862
165  11637.127
164  11036.068
163  10342.977
162  9990.8377
161  10039.604
160  9738.5357
159  9677.3182
158  9678.5058
157  9973.2835
156  11016.783
155  12509.505
154  14999.978
153  17499.177
152  22568.519
151  31534.121
150  24535.663
149  11460.696
148  7826.4411
147  6757.3024
146  6547.8466
145  6273.5786
144  6161.2463
143  6206.0127
142  6189.1689
141  6146.8808
140  6125.1722
139  6190.3769
138  6354.3781
137  6414.0271
136  6738.5221
135  6744.6127
134  6836.4244
133  6570.0837
132  6378.7542
131  6135.1413
130  5799.3425
129  5771.5307
128  5866.2396
127  5327.04
126  5465.4235
125  5737.1192
124  5980.8633
123  5854.6049
122  6295.3451
121  6399.3051
120  7120.4373
119  7735.2419
118  8280.6058
117  7997.8121
116  7659.5115
115  6865.5556
114  6322.6042
113  5157.3207
112  4978.7335
111  4397.059
110  4146.0787
109  3678.332
108  3691.599
107  3534.8463
106  3608.4257
105  4273.6872
104  6220.1576
103  8400.6495
102  10005.341
101  13309.142
100  25330.46
99  24113.954
98  4118.0363
97  954.99565
96  733.94242
95  631.03132
94  727.87894
93  686.39689
92  618.79837
91  621.357
90  576.16877
89  635.695
88  622.22195
87  725.87394
86  629.9353
85  547.11004
84  576.49086
83  594.23497
82  648.09464
81  704.26715
80  721.52211
79  621.17115
78  611.00881
77  713.46255
76  652.71148
75  587.24532
74  594.00661
73  630.27596
72  607.96978
71  742.96016
70  688.95284
69  740.45819
68  810.61999
67  717.65001
66  745.16048
65  846.32864
64  813.08769
63  880.56694
62  911.7595
61  782.22282
60  767.93199
59  795.16446
58  732.75358
57  758.81499
56  782.78665
55  683.31407
54  865.06808
53  894.18244
52  835.90479
51  789.46601
50  897.01367
49  816.7377
48  764.77831
47  821.51691
46  748.78309
45  771.43545
44  784.11937
43  784.9281
42  951.9337
41  920.89249
40  944.30687
39  924.41444
38  786.80539
37  839.1417
36  801.41934
35  863.83291
34  880.87045
33  860.36399
32  853.6411
31  918.26465
30  1045.0637
29  1022.6864
28  1179.4309
27  1409.5734
26  1736.883
25  1703.9105
24  1583.6839
23  1439.897
22  1149.1518
21  775.61887
20  599.91496
19  548.92145
18  538.79088
17  537.79795
16  481.00432
15  594.70836
14  709.40787
13  671.7671
12  791.31147
11  858.67718
10  1203.5965
9  1583.2037
8  1198.7019
7  1121.7589
6  761.47102
5  635.04763
4  708.24847
3  711.35987
2  553.25283
1  315.84379
0  58.772263