# Region:            Survey (11)
# Acquisition Date:  11/11/19 21:54:12 UTC
# Analysis Method:   XPS
# Analyzer:          Phoibos
# Analyzer Lens:     MediumArea:1.5kV
# Analyzer Slit:     4:3x20\B:open
# Scan Mode:         FixedAnalyzerTransmission
# Curves/Scan:       1
# Values/Curve:      1301
# Dwell Time:        0.1
# Excitation Energy: 1486.71
# Binding Energy:    1300
# Pass Energy:       50
# Bias Voltage:      90
# Detector Voltage:  1900
# Eff. Workfunction: 4.395
# Source:            Focus
# Comment:           0 grados
#
# Cycle: 0
# Number of Scans: 2
#
# Cycle: 0, Curve: 0
# Acquisition Date: 11/11/19 21:54:12 UTC
#
# ColumnLabels: energy counts/s
#
1300  6023.2957
1299  5927.0361
1298  5931.4923
1297  5941.5002
1296  5909.5907
1295  5612.3083
1294  5857.1664
1293  6095.5758
1292  6078.7047
1291  5746.0887
1290  5831.9118
1289  5737.5514
1288  5853.8991
1287  5651.956
1286  5310.2511
1285  5678.1906
1284  5649.4463
1283  5782.5721
1282  5364.775
1281  5408.5245
1280  5305.3846
1279  5118.2084
1278  5102.152
1277  5125.9345
1276  5149.702
1275  5718.262
1274  5418.6192
1273  5277.932
1272  5313.1149
1271  5270.7458
1270  5639.0616
1269  5599.2485
1268  4947.7929
1267  5084.6696
1266  5196.1365
1265  5183.2705
1264  5187.0715
1263  4848.0131
1262  4682.7759
1261  4924.7571
1260  4770.8233
1259  4668.7956
1258  4638.3356
1257  4722.8587
1256  4725.033
1255  4709.5485
1254  4975.9604
1253  4659.8126
1252  4817.8803
1251  4618.6733
1250  4770.8549
1249  4551.3856
1248  4519.9068
1247  4603.5203
1246  4591.0529
1245  4753.2023
1244  4677.2947
1243  4766.5166
1242  4535.2887
1241  4655.9066
1240  4755.4589
1239  4284.5331
1238  4358.7004
1237  4623.0872
1236  4901.4713
1235  4846.6054
1234  4469.0673
1233  4601.4033
1232  4821.0855
1231  4610.0894
1230  4463.3987
1229  4685.4314
1228  4620.4055
1227  4671.0165
1226  4734.9899
1225  4736.9962
1224  4583.4485
1223  4515.3242
1222  4404.2182
1221  4646.7546
1220  4535.2095
1219  4621.3269
1218  4768.5742
1217  4778.9545
1216  4808.1165
1215  4460.5363
1214  4332.1422
1213  4431.5634
1212  4391.6118
1211  4790.4556
1210  4619.3984
1209  4604.9947
1208  4728.0238
1207  4412.582
1206  4362.0796
1205  4640.7465
1204  4767.2162
1203  4630.4704
1202  4240.8408
1201  4270.5415
1200  4267.2291
1199  4455.5037
1198  4545.3121
1197  4598.6797
1196  4497.8848
1195  4286.0869
1194  4405.0705
1193  4383.0909
1192  4363.5543
1191  4587.441
1190  4614.5728
1189  4303.2898
1188  4348.4462
1187  4556.5771
1186  4594.3453
1185  4600.1977
1184  4602.297
1183  4459.0129
1182  4483.4858
1181  4491.1568
1180  4534.5741
1179  4347.7717
1178  4446.5092
1177  4432.016
1176  4849.2712
1175  4783.1386
1174  4367.8511
1173  4460.5709
1172  4461.5045
1171  4451.3221
1170  4439.3721
1169  4454.9289
1168  4408.7344
1167  4376.9562
1166  4683.9127
1165  4516.4651
1164  4368.6088
1163  4595.7039
1162  4462.0533
1161  4305.0232
1160  4405.7634
1159  4539.7702
1158  4556.1579
1157  4322.1546
1156  4654.269
1155  4193.148
1154  4403.3017
1153  4420.6608
1152  4402.8257
1151  4372.8478
1150  4391.5915
1149  4474.4512
1148  4559.801
1147  4431.5062
1146  4132.9511
1145  4197.7623
1144  4445.9301
1143  4558.4688
1142  4388.9483
1141  4456.3398
1140  4692.8883
1139  4415.3796
1138  4578.9127
1137  4469.7798
1136  4366.2072
1135  4711.2417
1134  4209.0394
1133  4443.8256
1132  4575.1792
1131  4552.86
1130  4551.1784
1129  4552.7894
1128  4157.2704
1127  4187.7492
1126  4282.2661
1125  4273.0704
1124  4334.128
1123  4376.281
1122  4538.8392
1121  4414.5256
1120  4516.8295
1119  4269.4048
1118  4483.2299
1117  4286.989
1116  4515.8087
1115  4396.1964
1114  4259.9298
1113  4476.0402
1112  4185.8011
1111  4189.23
1110  4544.3123
1109  4542.5782
1108  4453.1693
1107  4449.854
1106  4664.0117
1105  4596.7076
1104  4427.111
1103  4530.2689
1102  4717.77
1101  4627.6945
1100  4554.654
1099  4632.4762
1098  4324.6717
1097  3972.9012
1096  4424.7202
1095  4203.2462
1094  4478.2336
1093  4309.9689
1092  4450.135
1091  4231.3832
1090  4345.0807
1089  4490.517
1088  4358.6857
1087  4168.1089
1086  4344.0613
1085  4441.744
1084  4651.3812
1083  4342.09
1082  4237.6907
1081  4257.8972
1080  4328.6678
1079  4252.2998
1078  4481.2582
1077  4284.9379
1076  4601.4417
1075  4442.71
1074  4330.1323
1073  4436.1624
1072  4520.8088
1071  4582.7249
1070  4466.1898
1069  4305.0653
1068  4271.5387
1067  4113.6805
1066  4429.5858
1065  4319.2604
1064  4534.3789
1063  4343.736
1062  4424.0706
1061  4466.0903
1060  4385.4002
1059  4421.8069
1058  4440.5348
1057  4545.905
1056  4416.9404
1055  4323.3508
1054  4420.194
1053  4756.2398
1052  4412.3318
1051  4556.6907
1050  4694.6067
1049  4703.4271
1048  4705.9795
1047  4583.2077
1046  4684.1558
1045  4625.681
1044  4529.4046
1043  4441.7796
1042  4543.0866
1041  4771.9832
1040  4648.5961
1039  4645.1979
1038  4512.1827
1037  4436.7669
1036  4805.2815
1035  4652.5571
1034  4783.3331
1033  4751.8332
1032  4653.5988
1031  4590.5929
1030  4527.3405
1029  4474.1422
1028  4512.7331
1027  4706.5881
1026  4587.4559
1025  4505.9849
1024  4620.0296
1023  4654.147
1022  4513.306
1021  4710.4323
1020  4710.0302
1019  4708.0007
1018  4733.6306
1017  4732.9266
1016  4654.0437
1015  4727.3261
1014  4783.2043
1013  4960.3172
1012  4918.5945
1011  4800.3825
1010  4739.1215
1009  4622.1152
1008  4803.6794
1007  4987.2548
1006  4845.8558
1005  4737.3765
1004  4766.1435
1003  5027.659
1002  5173.0432
1001  4890.8958
1000  4995.5267
999  5046.8067
998  5219.3307
997  5356.6351
996  5122.4874
995  4912.708
994  5097.7196
993  5108.0649
992  4955.0885
991  4744.1356
990  5010.9119
989  4878.3085
988  4537.7164
987  4785.7131
986  4788.5785
985  5070.8763
984  4960.4145
983  4966.153
982  5082.7972
981  5221.2579
980  5099.5534
979  5235.5402
978  5556.9357
977  5510.8225
976  5308.1528
975  5217.4138
974  5119.229
973  4963.0761
972  4862.8023
971  4722.3192
970  4534.7434
969  4432.6404
968  4569.0675
967  4517.6186
966  4420.7953
965  4502.6463
964  4386.8219
963  4449.6769
962  4698.2091
961  4402.1474
960  4385.059
959  4325.1537
958  4145.816
957  4175.5349
956  4355.0779
955  4334.2248
954  4380.5552
953  4430.6224
952  4392.2237
951  4302.334
950  4303.074
949  4587.2185
948  4553.2344
947  4458.0005
946  4402.6729
945  4531.4053
944  4328.84
943  4395.5939
942  4485.2732
941  4642.3389
940  4613.0997
939  4564.9357
938  4391.8454
937  4437.8648
936  4433.787
935  4431.2964
934  4504.803
933  4627.084
932  4464.7508
931  4450.3469
930  4593.0696
929  4453.9675
928  4547.653
927  4516.6904
926  4745.5174
925  4491.2117
924  4421.9957
923  4493.6
922  4713.5396
921  4671.3943
920  4772.7342
919  4513.8547
918  4238.7583
917  4692.5573
916  4724.0204
915  4594.0963
914  4738.6746
913  4540.3406
912  4479.9014
911  4779.2084
910  4791.737
909  4640.6856
908  4697.7636
907  4926.0777
906  5041.551
905  4906.9581
904  4665.8027
903  4657.3499
902  4885.4686
901  4829.1769
900  4860.2033
899  4980.136
898  4900.2261
897  5017.2482
896  4921.2708
895  5005.6115
894  5144.7599
893  4988.3081
892  4811.1527
891  4775.2397
890  5049.3258
889  4897.5886
888  4899.6624
887  4799.9907
886  4886.4142
885  4826.3735
884  4998.0923
883  5032.3131
882  5071.7392
881  4763.7346
880  4734.2349
879  5120.7456
878  5011.494
877  4970.9155
876  5003.8488
875  5107.6151
874  4989.1328
873  5013.8525
872  4966.8836
871  5297.0737
870  5108.8393
869  5025.3967
868  5090.2923
867  5126.4727
866  5069.007
865  5088.6442
864  5469.4973
863  5048.5503
862  4966.8098
861  5220.9748
860  5020.5737
859  5163.2701
858  5323.4423
857  5353.8003
856  5110.6139
855  5207.6019
854  5198.7596
853  5268.1628
852  5198.0154
851  5242.8042
850  5234.9446
849  5559.8629
848  5438.1892
847  5266.2767
846  5150.1665
845  5260.5539
844  5281.193
843  5580.2031
842  5303.4517
841  5447.8769
840  5382.1086
839  5238.2342
838  5347.7965
837  5244.062
836  5480.9915
835  5414.6055
834  5327.5466
833  5410.0506
832  5222.6682
831  5376.7037
830  5356.6862
829  5419.4402
828  5368.8418
827  5697.474
826  5564.7218
825  5354.5759
824  5633.1753
823  5413.5548
822  5323.775
821  5306.8315
820  5480.4868
819  5547.1421
818  5568.3055
817  5651.039
816  5567.616
815  5798.366
814  5479.4075
813  5467.275
812  5474.2437
811  5483.0141
810  5669.416
809  5455.8048
808  5691.9121
807  5661.0635
806  5723.1492
805  5761.8668
804  5802.0696
803  5776.3944
802  5641.5734
801  5780.8887
800  5609.6897
799  5662.6348
798  5705.7287
797  5433.988
796  5586.2559
795  5529.5442
794  5735.9915
793  5807.3349
792  5634.5712
791  5447.5063
790  5804.2847
789  5677.585
788  5899.2878
787  5744.926
786  5766.576
785  5811.2903
784  5978.1703
783  6028.303
782  5798.9722
781  5646.0197
780  5933.0157
779  5918.0115
778  5757.5923
777  5702.5995
776  5270.9098
775  5936.6395
774  5957.8816
773  5733.1903
772  6022.052
771  5778.2912
770  5837.0424
769  5946.9398
768  5910.0067
767  5918.0286
766  6054.2025
765  6214.1957
764  5984.6389
763  6234.6164
762  6261.322
761  5856.3112
760  5791.5216
759  6045.6422
758  6207.4999
757  5999.1595
756  6056.4366
755  5920.7486
754  6031.937
753  6028.5959
752  6289.8932
751  5794.5527
750  5904.5935
749  6027.7306
748  6160.6327
747  6125.2238
746  6211.8159
745  6371.4724
744  6313.8893
743  6180.7548
742  5962.5934
741  5918.2142
740  5877.5379
739  6338.3685
738  6227.4153
737  6219.3757
736  6127.1373
735  6328.8391
734  6594.9362
733  6350.2184
732  6256.111
731  6145.3908
730  6135.0285
729  6315.0908
728  6330.2448
727  6225.7459
726  6340.9332
725  6375.9772
724  6372.592
723  6428.9084
722  6283.1136
721  6625.8928
720  6480.1516
719  6335.4162
718  6428.7133
717  6617.6594
716  6230.9159
715  6392.2168
714  6382.742
713  6616.9163
712  6365.4341
711  6647.0704
710  6589.1882
709  6422.641
708  6556.178
707  6581.8106
706  6374.6514
705  6386.5847
704  6587.5134
703  6172.0543
702  6499.2509
701  6232.3598
700  6386.705
699  6399.9958
698  6492.1994
697  6424.731
696  6347.7272
695  6601.4107
694  6583.8684
693  6603.1628
692  6406.7053
691  6519.1686
690  6569.795
689  6534.5533
688  6469.6813
687  6442.6912
686  6575.5929
685  6416.2612
684  6808.5457
683  6501.25
682  6552.6657
681  6410.7367
680  6833.2847
679  7082.499
678  6576.4563
677  6471.1243
676  6647.2497
675  6807.5462
674  6663.8547
673  6756.482
672  7053.7174
671  6787.824
670  6672.4872
669  6664.1809
668  6860.2293
667  6725.7125
666  6612.4429
665  6929.9206
664  6766.5009
663  7119.9679
662  6835.0321
661  6938.4228
660  6617.8124
659  6889.1604
658  6588.0324
657  6811.3961
656  6657.6874
655  6755.5482
654  6647.9753
653  6645.7708
652  6858.8309
651  6908.7669
650  6821.1381
649  6879.5607
648  6654.1187
647  7043.0284
646  7163.7541
645  6985.4629
644  6889.2132
643  6566.9964
642  6886.8914
641  6882.3915
640  6966.8872
639  6799.1333
638  7010.2893
637  6930.8422
636  7198.2225
635  7184.8658
634  7087.2951
633  7331.6927
632  7221.6424
631  7205.3911
630  7025.6945
629  7359.8627
628  7097.151
627  6929.2799
626  7170.3197
625  6975.6984
624  7027.2128
623  7167.4527
622  7534.9175
621  7294.9716
620  7350.0869
619  7258.175
618  7503.6744
617  7168.6379
616  7354.565
615  7233.6834
614  7239.0408
613  7297.8487
612  7180.6457
611  7431.5632
610  7408.5692
609  7544.9328
608  7395.3711
607  7571.9664
606  7433.8433
605  7380.1088
604  7182.7254
603  7337.2188
602  7534.0316
601  7625.8408
600  7512.2833
599  7542.2431
598  7904.8064
597  7799.1938
596  7396.1831
595  7503.2557
594  7811.9006
593  7779.9101
592  7873.487
591  7856.4481
590  8028.2099
589  7697.4942
588  7669.4906
587  7959.4581
586  8105.8316
585  8097.6834
584  8163.3197
583  7879.002
582  7792.8574
581  7998.4063
580  7807.664
579  7736.1857
578  7803.6332
577  7981.9336
576  7799.3627
575  7529.909
574  7714.3795
573  7883.4145
572  8046.9845
571  7958.6093
570  7770.2068
569  7601.6722
568  7876.0353
567  7775.7658
566  8215.0643
565  8439.1828
564  8617.3949
563  7894.1928
562  7843.3107
561  7976.9557
560  7595.4623
559  7797.9468
558  8082.5613
557  7807.4948
556  8176.5276
555  8042.7822
554  8215.3567
553  8034.5762
552  8456.8629
551  8343.2847
550  8522.2435
549  8490.7923
548  8238.2477
547  8161.21
546  8058.8348
545  7857.6898
544  8078.6342
543  7996.8535
542  7822.2506
541  8193.3729
540  7917.2559
539  7671.3537
538  7805.1153
537  7766.8483
536  7958.3668
535  8193.8432
534  8363.0958
533  9383.2743
532  12596.14
531  13512.603
530  8990.1383
529  7855.686
528  7683.681
527  7498.9887
526  7486.2459
525  7234.5613
524  7771.9136
523  7554.4248
522  7430.9206
521  7472.0629
520  8022.5411
519  7801.692
518  7607.2157
517  7578.1222
516  7639.8957
515  7610.3766
514  8199.338
513  7798.1875
512  7828.6765
511  7572.0845
510  7502.4931
509  7549.4661
508  7903.5569
507  7862.0625
506  7698.5624
505  7947.1297
504  7716.3494
503  7880.8809
502  8043.3009
501  7977.4506
500  7791.532
499  7756.4152
498  7736.9515
497  7313.4089
496  7757.8706
495  8070.2824
494  8135.6008
493  7682.7609
492  7628.3991
491  7878.0131
490  7741.2556
489  8131.6101
488  7850.6342
487  7985.2999
486  8096.4303
485  7942.0631
484  7999.0412
483  7759.0848
482  7615.8647
481  7646.1675
480  7974.7851
479  8074.9475
478  7869.0596
477  7930.6347
476  8024.9722
475  8354.2054
474  8004.5867
473  7937.8837
472  7919.5302
471  8209.1176
470  8219.2175
469  8405.6595
468  8418.8541
467  8307.1367
466  8114.8358
465  8119.0021
464  8173.3918
463  8213.3435
462  8091.5368
461  8341.1914
460  8396.5362
459  8415.4343
458  8232.6355
457  8322.9457
456  8207.1315
455  8195.1409
454  8102.6644
453  8326.9457
452  8519.1889
451  8450.8793
450  8362.5705
449  8502.339
448  8350.9714
447  8289.6739
446  8302.8596
445  8217.6245
444  8508.4027
443  8520.4111
442  8518.9302
441  8411.6848
440  8468.6423
439  8201.385
438  8488.9754
437  8240.8435
436  8298.0899
435  8443.8373
434  8214.0519
433  8789.1294
432  8322.8664
431  8473.5338
430  8660.2314
429  8799.9969
428  8729.515
427  8687.2723
426  8600.0393
425  8743.7029
424  8842.4783
423  8362.1483
422  8697.8748
421  8802.996
420  8481.0695
419  8673.0191
418  8851.171
417  8953.5436
416  8654.0307
415  8644.0371
414  9053.4743
413  9085.2719
412  9060.4552
411  9297.9876
410  9054.632
409  8667.8298
408  8484.7798
407  8644.1184
406  8888.9276
405  9023.9402
404  8969.0012
403  8691.8752
402  8782.019
401  8699.3855
400  8745.1035
399  8796.6287
398  9499.8884
397  10634.853
396  9154.5967
395  8693.824
394  9197.8497
393  9488.2385
392  9204.5264
391  8856.9115
390  8996.3676
389  9192.3107
388  8940.2305
387  8823.2256
386  8831.5409
385  9396.8694
384  8664.9779
383  8680.8185
382  8925.6424
381  8684.2515
380  9264.8789
379  8979.1111
378  9272.128
377  9179.8426
376  9257.4763
375  9036.7381
374  9015.9253
373  9180.0549
372  9470.3572
371  9160.4034
370  9395.8078
369  9345.0756
368  9512.8332
367  9368.4881
366  9801.0019
365  9548.3606
364  9587.116
363  9363.2913
362  9107.1097
361  9607.9051
360  9307.5917
359  9565.941
358  9484.4941
357  9497.7076
356  9498.7185
355  9846.4923
354  9673.0306
353  9249.3955
352  9850.2464
351  9898.42
350  9704.8614
349  9716.8577
348  9507.937
347  9821.7527
346  9564.1584
345  9558.941
344  9557.2204
343  9395.0528
342  9493.5407
341  9763.3218
340  10055.856
339  9785.8477
338  9946.3885
337  10226.49
336  10206.194
335  10016.313
334  9900.2803
333  9720.7532
332  9486.1115
331  9956.8693
330  9777.1126
329  9613.704
328  9915.8718
327  9518.9568
326  9776.5913
325  9618.0676
324  9856.3803
323  9698.9296
322  10239.745
321  11363.553
320  12618.237
319  11645.858
318  10727.559
317  9980.0933
316  9739.9389
315  9927.1282
314  9668.5109
313  9549.4092
312  9790.513
311  9736.2118
310  9611.6105
309  9543.7932
308  9766.3158
307  9704.5859
306  9759.884
305  9850.116
304  9603.8975
303  9566.9163
302  9761.7312
301  9717.6806
300  10186.924
299  9756.0662
298  9721.3883
297  9864.2457
296  9378.2618
295  10163.489
294  10473.784
293  10349.936
292  10275.548
291  10258.865
290  10312.083
289  10065.136
288  10257.149
287  9919.7368
286  10130.775
285  10152.561
284  10652.114
283  10634.738
282  10487.61
281  10312.166
280  10208.075
279  10267.907
278  10398.52
277  10524.222
276  10357.33
275  10979.446
274  10796.021
273  10561.905
272  10196.286
271  10767.509
270  10806.014
269  10528.715
268  10565.691
267  10464.701
266  10484.449
265  10666.158
264  10870.69
263  10919.428
262  11463.616
261  11344.939
260  11570.419
259  11270.584
258  11200.558
257  10955.531
256  10847.005
255  10910.398
254  10831.744
253  10620.696
252  10516.991
251  10396.014
250  10314.759
249  10469.106
248  10441.42
247  10629.715
246  10500.06
245  12351.143
244  14573.676
243  13959.914
242  17199.578
241  13080.247
240  10445.607
239  10541.126
238  10861.89
237  10417.941
236  10229.305
235  10332.359
234  10505.558
233  10753.475
232  10988.852
231  10935.561
230  10897.255
229  10560.952
228  10966.876
227  11145.574
226  10657.379
225  10176.923
224  10884.478
223  10730.628
222  10505.001
221  10880.827
220  10927.251
219  11037.992
218  11039.566
217  10713.248
216  10939.95
215  10894.708
214  10584.944
213  10934.885
212  10844.962
211  10990.335
210  10932.004
209  10746.562
208  11081.191
207  11495.814
206  11232.83
205  11966.385
204  11812.572
203  12043.047
202  11765.554
201  11555.619
200  12093.96
199  11971.792
198  12067.744
197  11763.89
196  11777.248
195  11541.138
194  11822.822
193  12207.807
192  12166.157
191  12087.384
190  12568.753
189  12727.008
188  13261.377
187  13346.006
186  13293.314
185  13430.321
184  13302.576
183  13061.863
182  12867.444
181  12891.395
180  12210.394
179  11967.216
178  11900.689
177  11936.221
176  12131.434
175  12037.452
174  12916.118
173  13279.791
172  13580.318
171  14531.432
170  15490.283
169  16790.652
168  17788.875
167  16932.639
166  15892.818
165  14098.033
164  13177.222
163  12140.176
162  11457.035
161  10438.151
160  10347.806
159  10164.197
158  10019.327
157  10356.759
156  10141.919
155  10767.135
154  11612.53
153  14247.089
152  22253.536
151  40674.45
150  35921.07
149  14863.308
148  9212.298
147  7923.4393
146  7465.2279
145  6890.9944
144  6532.2221
143  6645.228
142  6751.3964
141  6475.3332
140  6489.1164
139  6903.3805
138  7021.8274
137  7359.8088
136  7548.4273
135  7403.5622
134  7779.0061
133  7651.6672
132  8000.1449
131  7437.5445
130  6940.0401
129  6623.5997
128  6133.6
127  6171.2634
126  6081.2043
125  6119.7976
124  6082.1152
123  6371.5671
122  6719.4702
121  7615.153
120  8024.7582
119  9167.8909
118  10459.299
117  11261.659
116  10828.739
115  9223.3737
114  7718.4735
113  6731.1905
112  5796.467
111  5056.5183
110  4468.0926
109  4362.8617
108  3970.0596
107  3682.4706
106  3604.2736
105  3529.5644
104  3524.3727
103  3673.1351
102  4554.0991
101  9554.9736
100  31934.699
99  38727.759
98  6933.3687
97  1033.3867
96  784.30387
95  638.98656
94  579.67382
93  576.69385
92  573.34084
91  634.39669
90  707.13504
89  675.05261
88  601.26458
87  620.38544
86  634.30232
85  636.45489
84  682.65154
83  586.13629
82  602.98363
81  769.30401
80  698.18072
79  669.6343
78  647.42212
77  649.49892
76  609.99606
75  708.5596
74  681.24725
73  605.13235
72  591.29111
71  699.96352
70  631.79748
69  740.97001
68  824.24766
67  746.12303
66  758.32164
65  772.35837
64  742.63358
63  697.04428
62  655.17589
61  732.85172
60  725.91204
59  777.30266
58  783.05146
57  709.33764
56  896.20123
55  766.73416
54  840.38892
53  858.20479
52  778.04853
51  885.44448
50  811.65409
49  825.39468
48  795.84026
47  893.94902
46  852.74368
45  772.91842
44  791.43999
43  733.17375
42  932.42193
41  966.41335
40  957.9222
39  1030.3621
38  951.76493
37  921.96815
36  858.00427
35  905.71578
34  918.87412
33  818.83641
32  804.6701
31  728.8604
30  924.29194
29  948.29786
28  958.06615
27  1062.2438
26  1155.3147
25  1101.3654
24  1225.9001
23  1407.3244
22  1282.8838
21  888.30868
20  877.1022
19  712.80343
18  629.41226
17  637.35386
16  589.79174
15  491.52
14  577.37649
13  647.28745
12  876.34302
11  1074.8426
10  1446.0329
9  1765.3775
8  1158.7971
7  850.49293
6  866.17647
5  765.02777
4  851.7041
3  826.52062
2  772.77258
1  466.48534
0  108.44281